SubjectNum	Age	Gender	PressedTask	Block Type	Block Repeat Num	Response Rate	Onset	Block	Trial	ImgType	ImgNum	RT	PressedC	FrameC
16	35	9	6	2	1	75	10	1	1	6	5	0	-1	16
16	35	9	6	2	1	75	10	1	2	6	10	114.85	49	3
16	35	9	6	2	1	75	10	1	2	6	10	364.43	49	8
16	35	9	6	2	1	75	10	1	3	6	4	11.35	49	1
16	35	9	6	2	1	75	10	1	3	6	4	638.45	49	13
16	35	9	6	2	1	75	10	1	4	6	9	9.78	49	1
16	35	9	6	2	1	75	10	1	4	6	9	658.8	49	14
16	35	9	6	2	1	75	10	1	5	16	7	9.9	49	1
16	35	9	6	2	1	75	10	1	6	6	2	672.83	49	14
16	35	9	6	2	1	75	10	1	7	6	3	13.64	49	1
16	35	9	6	2	1	75	10	1	7	6	3	617.17	49	13
16	35	9	6	2	1	75	10	1	8	16	9	0	-1	16
16	35	9	6	2	1	75	10	1	9	6	8	616.72	49	13
16	35	9	6	2	1	75	10	1	10	16	2	0	-1	16
16	35	9	6	2	1	75	10	1	11	6	7	0	-1	16
16	35	9	6	2	1	75	10	1	12	6	6	9.54	49	1
16	35	9	6	2	1	75	10	1	12	6	6	660.17	49	14
16	35	9	6	2	1	75	10	1	13	6	1	7.99	49	1
16	35	9	6	2	1	75	10	1	13	6	1	610.09	49	13
16	35	9	6	2	1	75	10	1	14	16	5	0	-1	16
16	35	9	6	2	1	75	10	1	15	6	5	573.74	49	12
16	35	9	6	2	1	75	10	1	16	6	2	743.8	49	15
16	35	9	6	2	1	75	10	1	17	6	4	8.46	49	1
16	35	9	6	2	1	75	10	1	17	6	4	672.87	49	14
16	35	9	6	2	1	75	10	1	18	6	9	10.15	49	1
16	35	9	6	2	1	75	10	1	18	6	9	694.76	49	14
16	35	9	6	2	1	75	10	1	19	6	10	11.4	49	1
16	35	9	6	2	1	75	10	1	19	6	10	734.64	49	15
16	35	9	6	2	1	75	10	1	20	16	1	10.92	49	1
16	35	9	6	2	1	75	10	1	21	6	3	662.89	49	14
16	35	9	6	2	1	75	10	1	22	16	10	8.85	49	1
16	35	9	6	2	1	75	10	1	22	16	10	781	49	16
16	35	9	6	2	1	75	10	1	23	6	7	8.49	49	1
16	35	9	6	2	1	75	10	1	24	16	4	8.89	49	1
16	35	9	6	2	1	75	10	1	25	6	8	690.32	49	14
16	35	9	6	2	1	75	10	1	26	16	3	7.4	49	1
16	35	9	6	2	1	75	10	1	27	6	6	686.57	49	14
16	35	9	6	2	1	75	10	1	28	6	1	10.22	49	1
16	35	9	6	2	1	75	10	1	29	6	6	66.76	49	2
16	35	9	6	2	1	75	10	1	29	6	6	710.54	49	15
16	35	9	6	2	1	75	10	1	30	6	1	11.67	49	1
16	35	9	6	2	1	75	10	1	31	16	6	59.98	49	2
16	35	9	6	2	1	75	10	1	32	6	9	668.98	49	14
16	35	9	6	2	1	75	10	1	33	6	8	7.88	49	1
16	35	9	6	2	1	75	10	1	33	6	8	659.55	49	14
16	35	9	6	2	1	75	10	1	34	6	10	7.93	49	1
16	35	9	6	2	1	75	10	1	35	16	8	73.53	49	2
16	35	9	6	2	1	75	10	1	36	6	7	646.43	49	13
16	35	9	6	2	1	75	10	1	37	6	4	8.06	49	1
16	35	9	6	2	1	75	10	1	37	6	4	657.73	49	14
16	35	9	6	2	1	75	10	1	38	6	2	8.26	49	1
16	35	9	6	2	1	75	10	1	39	6	5	61.04	49	2
16	35	9	6	2	1	75	10	1	39	6	5	609.9	49	13
16	35	9	6	2	1	75	10	1	40	16	7	0	-1	16
16	35	9	6	2	1	75	10	1	41	16	4	481.11	49	10
16	35	9	6	2	1	75	10	1	42	6	3	760.86	49	16
16	35	9	6	2	1	75	10	1	43	6	7	10.25	49	1
16	35	9	6	2	1	75	10	1	44	6	5	418.62	49	9
16	35	9	6	2	1	75	10	1	45	6	2	666.71	49	14
16	35	9	6	2	1	75	10	1	46	6	1	8.38	49	1
16	35	9	6	2	1	75	10	1	46	6	1	657.47	49	14
16	35	9	6	2	1	75	10	1	47	6	9	8.23	49	1
16	35	9	6	2	1	75	10	1	47	6	9	772.1	49	16
16	35	9	6	2	1	75	10	1	48	6	4	8.03	49	1
16	35	9	6	2	1	75	10	1	48	6	4	557.44	49	12
16	35	9	6	2	1	75	10	1	49	16	5	0	-1	16
16	35	9	6	2	1	75	10	1	50	16	1	0	-1	16
16	35	9	6	2	1	75	10	1	51	6	10	0	-1	16
16	35	9	6	2	1	75	10	1	52	6	6	110.3	49	3
16	35	9	6	2	1	75	10	1	53	6	3	109.95	49	3
16	35	9	6	2	1	75	10	1	53	6	3	662.8	49	14
16	35	9	6	2	1	75	10	1	54	6	8	10.78	49	1
16	35	9	6	2	1	75	10	1	54	6	8	612.13	49	13
16	35	9	6	2	1	75	10	1	55	16	2	663.98	49	14
16	35	9	6	2	1	75	10	1	56	6	2	9.96	49	1
16	35	9	6	2	1	75	10	1	56	6	2	764.9	49	16
16	35	9	6	2	1	75	10	1	57	6	10	8.18	49	1
16	35	9	6	2	1	75	10	1	58	6	9	82.74	49	2
16	35	9	6	2	1	75	10	1	59	16	10	407.43	49	9
16	35	9	6	2	1	75	10	1	60	6	1	768.35	49	16
16	35	9	6	2	1	75	10	1	61	6	8	8.26	49	1
16	35	9	6	2	1	75	10	1	62	6	3	113.33	49	3
16	35	9	6	2	1	75	10	1	63	6	6	9.65	49	1
16	35	9	6	2	1	75	10	1	64	6	5	21.79	49	1
16	35	9	6	2	1	75	10	1	64	6	5	611.09	49	13
16	35	9	6	2	1	75	10	1	65	6	7	0	-1	16
16	35	9	6	2	1	75	10	1	66	6	4	31.68	49	1
16	35	9	6	2	1	75	10	1	66	6	4	679.58	49	14
16	35	9	6	2	1	75	10	1	67	6	7	10	49	1
16	35	9	6	2	1	75	10	1	67	6	7	714.02	49	15
16	35	9	6	2	1	75	10	1	68	6	4	8.98	49	1
16	35	9	6	2	1	75	10	1	68	6	4	638.4	49	13
16	35	9	6	2	1	75	10	1	69	6	10	8.68	49	1
16	35	9	6	2	1	75	10	1	69	6	10	708.08	49	15
16	35	9	6	2	1	75	10	1	70	6	2	8.37	49	1
16	35	9	6	2	1	75	10	1	70	6	2	781.99	49	16
16	35	9	6	2	1	75	10	1	71	6	1	10.74	49	1
16	35	9	6	2	1	75	10	1	71	6	1	657.47	49	14
16	35	9	6	2	1	75	10	1	72	6	9	735.35	49	15
16	35	9	6	2	1	75	10	1	73	6	5	8.3	49	1
16	35	9	6	2	1	75	10	1	73	6	5	640.01	49	13
16	35	9	6	2	1	75	10	1	74	6	6	8.02	49	1
16	35	9	6	2	1	75	10	1	74	6	6	659.6	49	14
16	35	9	6	2	1	75	10	1	75	6	3	10.41	49	1
16	35	9	6	2	1	75	10	1	75	6	3	728.71	49	15
16	35	9	6	2	1	75	10	1	76	6	8	10.48	49	1
16	35	9	6	2	1	75	10	1	77	6	5	92.43	49	2
16	35	9	6	2	1	75	10	1	77	6	5	711.84	49	15
16	35	9	6	2	1	75	10	1	78	16	9	10.28	49	1
16	35	9	6	2	1	75	10	1	79	16	6	0	-1	16
16	35	9	6	2	1	75	10	1	80	16	3	0	-1	16
16	35	9	6	2	1	75	10	1	81	16	8	0	-1	16
16	35	9	6	2	1	75	10	1	82	6	4	661.55	49	14
16	35	9	6	2	1	75	10	1	83	16	7	7.73	49	1
16	35	9	6	2	1	75	10	1	84	6	10	661.87	49	14
16	35	9	6	2	1	75	10	1	85	6	2	8.69	49	1
16	35	9	6	2	1	75	10	1	85	6	2	779.87	49	16
16	35	9	6	2	1	75	10	1	86	6	9	10.59	49	1
16	35	9	6	2	1	75	10	1	86	6	9	622.04	49	13
16	35	9	6	2	1	75	10	1	87	6	7	665.46	49	14
16	35	9	6	2	1	75	10	1	88	6	8	10.7	49	1
16	35	9	6	2	1	75	10	1	88	6	8	765.16	49	16
16	35	9	6	2	1	75	10	1	89	6	6	11.03	49	1
16	35	9	6	2	1	75	10	1	90	6	3	60.21	49	2
16	35	9	6	2	1	75	10	1	90	6	3	768.33	49	16
16	35	9	6	2	1	75	10	1	91	6	1	13.66	49	1
16	35	9	6	2	1	75	10	1	91	6	1	720.14	49	15
16	35	9	6	2	1	75	10	1	92	6	7	9.24	49	1
16	35	9	6	2	1	75	10	1	92	6	7	784.62	49	16
16	35	9	6	2	1	75	10	1	93	16	9	9.49	49	1
16	35	9	6	2	1	75	10	1	94	6	5	535.56	49	11
16	35	9	6	2	1	75	10	1	95	6	2	724.56	49	15
16	35	9	6	2	1	75	10	1	96	6	1	7.89	49	1
16	35	9	6	2	1	75	10	1	96	6	1	642.63	49	13
16	35	9	6	2	1	75	10	1	97	6	9	8.27	49	1
16	35	9	6	2	1	75	10	1	97	6	9	638.29	49	13
16	35	9	6	2	1	75	10	1	98	16	2	8.19	49	1
16	35	9	6	2	1	75	10	1	99	6	4	12.64	49	1
16	35	9	6	2	1	75	10	1	100	16	4	677.7	49	14
16	35	9	6	2	1	75	10	1	101	6	10	12.7	49	1
16	35	9	6	2	1	75	10	1	102	6	3	439.61	49	9
16	35	9	6	2	1	75	10	1	103	6	6	527.89	49	11
16	35	9	6	2	1	75	10	1	104	6	8	616.7	49	13
16	35	9	6	2	1	75	10	1	105	6	5	580.29	49	12
16	35	9	6	2	1	75	10	1	106	6	9	657.31	49	14
16	35	9	6	2	1	75	10	1	107	16	10	9.2	49	1
16	35	9	6	2	1	75	10	1	107	16	10	774.02	49	16
16	35	9	6	2	1	75	10	1	108	6	4	7.94	49	1
16	35	9	6	2	1	75	10	1	109	16	1	0	-1	16
16	35	9	6	2	1	75	10	1	110	6	2	0	-1	16
16	35	9	6	2	1	75	10	1	111	6	10	160.96	49	4
16	35	9	6	2	1	75	10	1	111	6	10	660.18	49	14
16	35	9	6	2	1	75	10	1	112	6	6	10.53	49	1
16	35	9	6	2	1	75	10	1	113	16	5	32.27	49	1
16	35	9	6	2	1	75	10	1	114	6	3	609.12	49	13
16	35	9	6	2	1	75	10	1	115	6	7	658.48	49	14
16	35	9	6	2	1	75	10	1	116	16	3	8.35	49	1
16	35	9	6	2	1	75	10	1	117	16	6	0	-1	16
16	35	9	6	2	1	75	10	1	118	16	8	0	-1	16
16	35	9	6	2	1	75	10	1	119	6	8	716.21	49	15
16	35	9	6	2	1	75	10	1	120	6	1	8.43	49	1
16	35	9	6	2	1	75	10	1	120	6	1	707.07	49	15
16	35	9	6	2	1	75	10	1	121	16	5	9.12	49	1
16	35	9	6	2	1	75	10	1	122	6	5	573.28	49	12
16	35	9	6	2	1	75	10	1	123	6	2	662.25	49	14
16	35	9	6	2	1	75	10	1	124	16	4	10.34	49	1
16	35	9	6	2	1	75	10	1	125	16	9	0	-1	16
16	35	9	6	2	1	75	10	1	126	16	10	0	-1	16
16	35	9	6	2	1	75	10	1	127	6	10	629.67	49	13
16	35	9	6	2	1	75	10	1	128	16	2	675.13	49	14
16	35	9	6	2	1	75	10	1	129	16	6	8.02	49	1
16	35	9	6	2	1	75	10	1	130	16	8	0	-1	16
16	35	9	6	2	1	75	10	1	131	16	7	0	-1	16
16	35	9	6	2	1	75	10	1	132	6	9	624.06	49	13
16	35	9	6	2	1	75	10	1	133	6	4	535.29	49	11
16	35	9	6	2	1	75	10	1	134	6	8	0	-1	16
16	35	9	6	2	1	75	10	1	135	6	7	310.44	49	7
16	35	9	6	2	1	75	10	1	136	6	3	10.09	49	1
16	35	9	6	2	1	75	10	1	137	6	6	588.9	49	12
16	35	9	6	2	1	75	10	1	138	6	1	761.1	49	16
16	35	9	6	2	1	75	10	1	139	16	3	9.34	49	1
16	35	9	6	2	1	75	10	1	140	16	1	757.59	49	16
16	35	9	6	2	1	75	10	1	141	16	6	9.45	49	1
16	35	9	6	2	1	75	10	1	142	6	7	793.38	49	16
16	35	9	6	2	1	75	10	1	143	6	2	8.49	49	1
16	35	9	6	2	1	75	10	1	144	16	10	178.73	49	4
16	35	9	6	2	1	75	10	1	145	6	10	607.58	49	13
16	35	9	6	2	1	75	10	1	146	6	4	0	-1	16
16	35	9	6	2	1	75	10	1	147	6	5	23.05	49	1
16	35	9	6	2	1	75	10	1	147	6	5	674.02	49	14
16	35	9	6	2	1	75	10	1	148	6	1	10.62	49	1
16	35	9	6	2	1	75	10	1	149	6	9	160.2	49	4
16	35	9	6	2	1	75	10	1	149	6	9	731.07	49	15
16	35	9	6	2	1	75	10	1	150	6	6	11.14	49	1
16	35	9	6	2	1	75	10	1	150	6	6	621.42	49	13
16	35	9	6	2	1	75	10	1	151	6	3	711.3	49	15
16	35	9	6	2	1	75	10	1	152	6	8	8.19	49	1
16	35	9	6	2	1	75	10	1	153	6	7	292.83	49	6
16	35	9	6	2	1	75	10	1	154	6	9	187.82	49	4
16	35	9	6	2	1	75	10	1	155	6	4	210.45	49	5
16	35	9	6	2	1	75	10	1	156	6	2	463.23	49	10
16	35	9	6	2	1	75	10	1	157	6	10	0	-1	16
16	35	9	6	2	1	75	10	1	158	6	5	10.23	49	1
16	35	9	6	2	1	75	10	1	158	6	5	660.05	49	14
16	35	9	6	2	1	75	10	1	159	6	1	10.41	49	1
16	35	9	6	2	1	75	10	1	159	6	1	660.42	49	14
16	35	9	6	2	1	75	10	1	160	6	3	10.3	49	1
16	35	9	6	2	1	75	10	1	160	6	3	712.07	49	15
16	35	9	6	2	1	75	10	1	161	16	4	10.98	49	1
16	35	9	6	2	1	75	10	1	162	6	6	0	-1	16
16	35	9	6	2	1	75	10	1	163	16	8	9.81	49	1
16	35	9	6	2	1	75	10	1	164	6	8	781.22	49	16
16	35	9	6	2	1	75	10	1	165	6	6	8.88	49	1
16	35	9	6	2	1	75	10	1	166	16	7	92.63	49	2
16	35	9	6	2	1	75	10	1	167	6	4	590.46	49	12
16	35	9	6	2	1	75	10	1	168	6	5	0	-1	16
16	35	9	6	2	1	75	10	1	169	6	10	7.78	49	1
16	35	9	6	2	1	75	10	1	169	6	10	766.97	49	16
16	35	9	6	2	1	75	10	1	170	6	9	11.93	49	1
16	35	9	6	2	1	75	10	1	170	6	9	720.62	49	15
16	35	9	6	2	1	75	10	1	171	6	7	10.7	49	1
16	35	9	6	2	1	75	10	1	172	16	5	40.13	49	1
16	35	9	6	2	1	75	10	1	173	6	2	735.67	49	15
16	35	9	6	2	1	75	10	1	174	16	2	10.24	49	1
16	35	9	6	2	1	75	10	1	175	6	1	672.21	49	14
16	35	9	6	2	1	75	10	1	176	6	8	7.78	49	1
16	35	9	6	2	1	75	10	1	177	6	3	8.32	49	1
16	35	9	6	2	1	75	10	1	177	6	3	767.66	49	16
16	35	9	6	2	1	75	10	1	178	6	5	13.08	49	1
16	35	9	6	2	1	75	10	1	178	6	5	762.56	49	16
16	35	9	6	2	1	75	10	1	179	6	4	9.62	49	1
16	35	9	6	2	1	75	10	1	179	6	4	692.91	49	14
16	35	9	6	2	1	75	10	1	180	6	2	7.64	49	1
16	35	9	6	2	1	75	10	1	180	6	2	767.77	49	16
16	35	9	6	2	1	75	10	1	181	6	10	8.52	49	1
16	35	9	6	2	1	75	10	1	181	6	10	727.77	49	15
16	35	9	6	2	1	75	10	1	182	6	9	10.94	49	1
16	35	9	6	2	1	75	10	1	183	6	6	11.16	49	1
16	35	9	6	2	1	75	10	1	184	16	9	41.54	49	1
16	35	9	6	2	1	75	10	1	185	16	1	0	-1	16
16	35	9	6	2	1	75	10	1	186	6	8	0	-1	16
16	35	9	6	2	1	75	10	1	187	6	7	0	-1	16
16	35	9	6	2	1	75	10	1	188	6	3	83.49	49	2
16	35	9	6	2	1	75	10	1	188	6	3	757.69	49	16
16	35	9	6	2	1	75	10	1	189	6	1	7.69	49	1
16	35	9	6	2	1	75	10	1	189	6	1	788.1	49	16
16	35	9	6	2	1	75	10	1	190	6	6	8.37	49	1
16	35	9	6	2	1	75	10	1	190	6	6	778.57	49	16
16	35	9	6	2	1	75	10	1	191	16	3	8.45	49	1
16	35	9	6	2	1	75	10	1	192	6	4	744	49	15
16	35	9	6	2	1	75	10	1	193	6	1	8.73	49	1
16	35	9	6	2	1	75	10	1	193	6	1	611.72	49	13
16	35	9	6	2	1	75	10	1	194	6	2	0	-1	16
16	35	9	6	2	1	75	10	1	195	16	6	161.12	49	4
16	35	9	6	2	1	75	10	1	196	6	5	575.29	49	12
16	35	9	6	2	1	75	10	1	197	6	9	678.1	49	14
16	35	9	6	2	1	75	10	1	198	16	8	9.21	49	1
16	35	9	6	2	1	75	10	1	199	16	10	0	-1	16
16	35	9	6	2	1	75	10	1	200	6	10	582.48	49	12
16	35	9	6	2	1	75	10	1	201	6	7	613.75	49	13
16	35	9	6	2	1	75	10	1	202	6	8	7.89	49	1
16	35	9	6	2	1	75	10	1	203	16	2	91.71	49	2
16	35	9	6	2	1	75	10	1	204	6	3	663.93	49	14
16	35	9	6	2	1	75	10	1	205	16	7	8.18	49	1
16	35	9	6	2	1	75	10	1	206	6	7	631.68	49	13
16	35	9	6	2	1	75	10	1	207	6	1	710.08	49	15
16	35	9	6	2	1	75	10	1	208	6	5	10.45	49	1
16	35	9	6	2	1	75	10	1	208	6	5	660.51	49	14
16	35	9	6	2	1	75	10	1	209	16	1	10.34	49	1
16	35	9	6	2	1	75	10	1	210	6	10	0	-1	16
16	35	9	6	2	1	75	10	1	211	6	4	108.18	49	3
16	35	9	6	2	1	75	10	1	211	6	4	675.46	49	14
16	35	9	6	2	1	75	10	1	212	16	4	7.94	49	1
16	35	9	6	2	1	75	10	1	213	6	2	557.79	49	12
16	35	9	6	2	1	75	10	1	214	6	9	567.11	49	12
16	35	9	6	2	1	75	10	1	215	16	5	0	-1	16
16	35	9	6	2	1	75	10	1	216	6	3	509.7	49	11
16	35	9	6	2	1	75	10	1	216	6	3	710.05	49	15
16	35	9	6	2	1	75	10	1	217	6	6	589.24	49	12
16	35	9	6	2	1	75	10	1	218	6	8	0	-1	16
16	35	9	6	2	1	75	10	1	219	6	6	126.54	49	3
16	35	9	6	2	1	75	10	1	220	6	4	10.66	49	1
16	35	9	6	2	1	75	10	1	220	6	4	759.94	49	16
16	35	9	6	2	1	75	10	1	221	16	9	10.74	49	1
16	35	9	6	2	1	75	10	1	222	6	9	133.54	49	3
16	35	9	6	2	1	75	10	1	223	6	10	627.55	49	13
16	35	9	6	2	1	75	10	1	224	6	1	8.76	49	1
16	35	9	6	2	1	75	10	1	224	6	1	762.03	49	16
16	35	9	6	2	1	75	10	1	225	16	3	8.82	49	1
16	35	9	6	2	1	75	10	1	226	6	2	742.17	49	15
16	35	9	6	2	1	75	10	1	227	6	7	7.94	49	1
16	35	9	6	2	1	75	10	1	227	6	7	736.12	49	15
16	35	9	6	2	1	75	10	1	228	6	5	7.81	49	1
16	35	9	6	2	1	75	10	1	228	6	5	718.21	49	15
16	35	9	6	2	1	75	10	1	229	6	8	8.16	49	1
16	35	9	6	2	1	75	10	1	230	6	3	258.29	49	6
16	35	9	6	2	1	75	10	1	231	6	6	159.96	49	4
16	35	9	6	2	1	75	10	1	232	16	6	128.23	49	3
16	35	9	6	2	1	75	10	1	233	16	7	0	-1	16
16	35	9	6	2	1	75	10	1	234	6	5	660.2	49	14
16	35	9	6	2	1	75	10	1	235	6	7	9.72	49	1
16	35	9	6	2	1	75	10	1	235	6	7	685.49	49	14
16	35	9	6	2	1	75	10	1	236	16	8	9.33	49	1
16	35	9	6	2	1	75	10	1	237	6	1	539.44	49	11
16	35	9	6	2	1	75	10	1	238	6	2	657.87	49	14
16	35	9	6	2	1	75	10	1	239	6	8	7.92	49	1
16	35	9	6	2	1	75	10	1	240	6	4	239.99	49	5
16	35	9	6	2	1	75	10	1	241	6	9	260.21	49	6
16	35	9	6	2	1	75	10	1	242	6	10	333	49	7
16	35	9	6	2	1	75	10	1	243	6	3	425.48	49	9
16	35	9	6	2	1	75	10	1	244	16	5	0	-1	16
16	35	9	6	2	1	75	10	1	245	6	7	710.24	49	15
16	35	9	6	2	1	75	10	1	246	6	10	10.4	49	1
16	35	9	6	2	1	75	10	1	246	6	10	670.11	49	14
16	35	9	6	2	1	75	10	1	247	6	4	10	49	1
16	35	9	6	2	1	75	10	1	247	6	4	685.02	49	14
16	35	9	6	2	1	75	10	1	248	6	2	8.74	49	1
16	35	9	6	2	1	75	10	1	248	6	2	690.2	49	14
16	35	9	6	2	1	75	10	1	249	6	5	7.83	49	1
16	35	9	6	2	1	75	10	1	249	6	5	720.48	49	15
16	35	9	6	2	1	75	10	1	250	16	2	8.19	49	1
16	35	9	6	2	1	75	10	1	250	16	2	768.27	49	16
16	35	9	6	2	1	75	10	1	251	16	1	8.35	49	1
16	35	9	6	2	1	75	10	1	252	6	1	718.05	49	15
16	35	9	6	2	1	75	10	1	253	16	4	8.84	49	1
16	35	9	6	2	1	75	10	1	254	6	9	723.72	49	15
16	35	9	6	2	1	75	10	1	255	6	6	8.98	49	1
16	35	9	6	2	1	75	10	1	255	6	6	683.24	49	14
16	35	9	6	2	1	75	10	1	256	6	3	10.45	49	1
16	35	9	6	2	1	75	10	1	256	6	3	712.96	49	15
16	35	9	6	2	1	75	10	1	257	6	8	9.76	49	1
16	35	9	6	2	1	75	10	1	258	6	6	712.23	49	15
16	35	9	6	2	1	75	10	1	259	6	2	9.46	49	1
16	35	9	6	2	1	75	10	1	259	6	2	794.8	49	16
16	35	9	6	2	1	75	10	1	260	6	7	9.15	49	1
16	35	9	6	2	1	75	10	1	260	6	7	659.03	49	14
16	35	9	6	2	1	75	10	1	261	16	9	8.24	49	1
16	35	9	6	2	1	75	10	1	262	6	8	707.37	49	15
16	35	9	6	2	1	75	10	1	263	6	5	8.13	49	1
16	35	9	6	2	1	75	10	1	263	6	5	738.95	49	15
16	35	9	6	2	1	75	10	1	264	6	9	8.1	49	1
16	35	9	6	2	1	75	10	1	264	6	9	559.9	49	12
16	35	9	6	2	1	75	10	1	265	16	10	0	-1	16
16	35	9	6	2	1	75	10	1	266	6	1	567.65	49	12
16	35	9	6	2	1	75	10	1	267	6	4	583.86	49	12
16	35	9	6	2	1	75	10	1	268	6	10	674.9	49	14
16	35	9	6	2	1	75	10	1	269	16	3	9.8	49	1
16	35	9	6	2	1	75	10	1	270	6	3	613.01	49	13
16	35	9	6	2	1	75	10	1	271	16	7	783.12	49	16
16	35	9	6	2	1	75	10	1	272	6	6	9.2	49	1
16	35	9	6	2	1	75	10	1	272	6	6	709.6	49	15
16	35	9	6	2	1	75	10	1	273	16	1	8.05	49	1
16	35	9	6	2	1	75	10	1	274	6	8	0	-1	16
16	35	9	6	2	1	75	10	1	275	6	4	71.2	49	2
16	35	9	6	2	1	75	10	1	275	6	4	638.16	49	13
16	35	9	6	2	1	75	10	1	276	16	10	7.24	49	1
16	35	9	6	2	1	75	10	1	277	6	10	633.37	49	13
16	35	9	6	2	1	75	10	1	278	6	2	7.78	49	1
16	35	9	6	2	1	75	10	1	278	6	2	707.58	49	15
16	35	9	6	2	1	75	10	1	279	6	9	8.81	49	1
16	35	9	6	2	1	75	10	1	279	6	9	675.42	49	14
16	35	9	6	2	1	75	10	1	280	6	1	12.51	49	1
16	35	9	6	2	1	75	10	1	280	6	1	729.03	49	15
16	35	9	6	2	1	75	10	1	281	6	5	10.66	49	1
16	35	9	6	2	1	75	10	1	281	6	5	709.93	49	15
16	35	9	6	2	1	75	10	1	282	6	7	10.65	49	1
16	35	9	6	2	1	75	10	1	282	6	7	740.18	49	15
16	35	9	6	2	1	75	10	1	283	6	3	10.7	49	1
16	35	9	6	2	1	75	10	1	283	6	3	718.42	49	15
16	35	9	6	2	1	75	10	1	284	6	2	9.23	49	1
16	35	9	6	2	1	75	10	1	285	6	10	128.59	49	3
16	35	9	6	2	1	75	10	1	286	6	9	110.12	49	3
16	35	9	6	2	1	75	10	1	287	6	8	173.77	49	4
16	35	9	6	2	1	75	10	1	288	16	9	261.46	49	6
16	35	9	6	2	1	75	10	1	289	6	5	625.1	49	13
16	35	9	6	2	1	75	10	1	290	6	1	684.83	49	14
16	35	9	6	2	1	75	10	1	291	6	7	9.97	49	1
16	35	9	6	2	1	75	10	1	291	6	7	772.91	49	16
16	35	9	6	2	1	75	10	1	292	16	2	11.44	49	1
16	35	9	6	2	1	75	10	1	292	16	2	768.08	49	16
16	35	9	6	2	1	75	10	1	293	6	3	11.37	49	1
16	35	9	6	2	1	75	10	1	294	6	6	610.23	49	13
16	35	9	6	2	1	75	10	1	295	6	4	758.24	49	16
16	35	9	6	2	1	75	10	1	296	16	5	9.16	49	1
16	35	9	6	2	1	75	10	1	297	16	4	0	-1	16
16	35	9	6	2	1	75	10	1	298	6	2	760.46	49	16
16	35	9	6	2	1	75	10	1	299	6	9	7.92	49	1
16	35	9	6	2	1	75	10	1	299	6	9	692.34	49	14
16	35	9	6	2	1	75	10	1	300	6	10	32.61	49	1
16	35	9	6	2	1	75	10	1	300	6	10	768.38	49	16
16	35	9	6	2	1	75	10	1	301	16	6	9.96	49	1
16	35	9	6	2	1	75	10	1	302	6	1	619	49	13
16	35	9	6	2	1	75	10	1	303	6	8	741	49	15
16	35	9	6	2	1	75	10	1	304	16	3	10.41	49	1
16	35	9	6	2	1	75	10	1	305	6	6	538.84	49	11
16	35	9	6	2	1	75	10	1	306	16	8	0	-1	16
16	35	9	6	2	1	75	10	1	307	6	7	581.92	49	12
16	35	9	6	2	1	75	10	1	308	6	3	581.06	49	12
16	35	9	6	2	1	75	10	1	309	16	7	0	-1	16
16	35	9	6	2	1	75	10	1	310	16	1	667.98	49	14
16	35	9	6	2	1	75	10	1	311	6	5	7.76	49	1
16	35	9	6	2	1	75	10	1	311	6	5	557.31	49	12
16	35	9	6	2	1	75	10	1	312	6	4	662.39	49	14
16	35	9	6	2	1	75	10	1	313	6	7	8.2	49	1
16	35	9	6	2	1	75	10	1	313	6	7	728.89	49	15
16	35	9	6	2	1	75	10	1	314	16	9	11.54	49	1
16	35	9	6	2	1	75	10	1	315	6	9	590.78	49	12
16	35	9	6	2	1	75	10	1	316	16	4	0	-1	16
16	35	9	6	2	1	75	10	1	317	6	2	774.5	49	16
16	35	9	6	2	1	75	10	1	318	6	4	9.98	49	1
16	35	9	6	2	1	75	10	1	318	6	4	708.03	49	15
16	35	9	6	2	1	75	10	1	319	16	5	8.38	49	1
16	35	9	6	2	1	75	10	1	319	16	5	691.92	49	14
16	35	9	6	2	1	75	10	1	320	6	5	10.4	49	1
16	35	9	6	2	1	75	10	1	321	6	1	694.55	49	14
16	35	9	6	2	1	75	10	1	322	6	10	7.93	49	1
16	35	9	6	2	1	75	10	1	322	6	10	659.43	49	14
16	35	9	6	2	1	75	10	1	323	16	10	7.65	49	1
16	35	9	6	2	1	75	10	1	324	16	2	634.48	49	13
16	35	9	6	2	1	75	10	1	325	6	6	10.8	49	1
16	35	9	6	2	1	75	10	1	325	6	6	730.89	49	15
16	35	9	6	2	1	75	10	1	326	6	3	10.34	49	1
16	35	9	6	2	1	75	10	1	327	6	8	19.52	49	1
16	35	9	6	2	1	75	10	1	328	6	5	115.51	49	3
16	35	9	6	2	1	75	10	1	329	6	10	23.03	49	1
16	35	9	6	2	1	75	10	1	330	6	4	216.56	49	5
16	35	9	6	2	1	75	10	1	331	6	9	573.42	49	12
16	35	9	6	2	1	75	10	1	332	6	2	721.33	49	15
16	35	9	6	2	1	75	10	1	333	6	8	8.31	49	1
16	35	9	6	2	1	75	10	1	334	6	7	210.28	49	5
16	35	9	6	2	1	75	10	1	335	6	3	164.94	49	4
16	35	9	6	2	1	75	10	1	336	6	6	191.38	49	4
16	35	9	6	2	1	75	10	1	337	6	1	382.99	49	8
16	35	9	6	2	1	75	10	1	338	6	7	0	-1	16
16	35	9	6	2	1	75	10	1	339	6	9	209.52	49	5
16	35	9	6	2	1	75	10	1	339	6	9	674.24	49	14
16	35	9	6	2	1	75	10	1	340	6	4	11.46	49	1
16	35	9	6	2	1	75	10	1	340	6	4	666.59	49	14
16	35	9	6	2	1	75	10	1	341	6	10	13.18	49	1
16	35	9	6	2	1	75	10	1	341	6	10	612.62	49	13
16	35	9	6	2	1	75	10	1	342	6	5	609.97	49	13
16	35	9	6	2	1	75	10	1	343	16	6	0	-1	16
16	35	9	6	2	1	75	10	1	344	16	3	0	-1	16
16	35	9	6	2	1	75	10	1	345	16	8	0	-1	16
16	35	9	6	2	1	75	10	1	346	6	2	719.4	49	15
16	35	9	6	2	1	75	10	1	347	16	2	7.49	49	1
16	35	9	6	2	1	75	10	1	348	6	1	159.64	49	4
16	35	9	6	2	1	75	10	1	349	6	3	614.4	49	13
16	35	9	6	2	1	75	10	1	350	6	6	407.67	49	9
16	35	9	6	2	1	75	10	1	351	6	8	359.6	49	8
16	35	9	6	2	1	75	10	1	352	6	2	678.36	49	14
16	35	9	6	2	1	75	10	1	353	6	9	10.63	49	1
16	35	9	6	2	1	75	10	1	353	6	9	567.88	49	12
16	35	9	6	2	1	75	10	1	354	6	10	489.43	49	10
16	35	9	6	2	1	75	10	1	355	6	7	659.69	49	14
16	35	9	6	2	1	75	10	1	356	16	9	9.05	49	1
16	35	9	6	2	1	75	10	1	357	6	1	523.98	49	11
16	35	9	6	2	1	75	10	1	358	6	6	476.34	49	10
16	35	9	6	2	1	75	10	1	359	6	5	465.28	49	10
16	35	9	6	2	1	75	10	1	360	6	8	690.73	49	14
16	35	9	6	2	1	75	10	1	361	6	3	7.81	49	1
16	35	9	6	2	1	75	10	1	361	6	3	632.77	49	13
16	35	9	6	2	1	75	10	1	362	6	4	10.3	49	1
16	35	9	6	2	1	75	10	1	362	6	4	727.95	49	15
16	35	9	6	2	1	75	10	1	363	6	5	9.28	49	1
16	35	9	6	2	1	75	10	1	363	6	5	658.06	49	14
16	35	9	6	2	1	75	10	1	364	6	2	10.31	49	1
16	35	9	6	2	1	75	10	1	365	16	10	90.65	49	2
16	35	9	6	2	1	75	10	1	366	6	10	560.32	49	12
16	35	9	6	2	1	75	10	1	367	6	9	587.52	49	12
16	35	9	6	2	1	75	10	1	368	6	4	558.51	49	12
16	35	9	6	2	1	75	10	1	369	6	3	460.06	49	10
16	35	9	6	2	1	75	10	1	370	6	8	760.34	49	16
16	35	9	6	2	1	75	10	1	371	6	7	7.67	49	1
16	35	9	6	2	1	75	10	1	372	6	6	26.48	49	1
16	35	9	6	2	1	75	10	1	372	6	6	590.97	49	12
16	35	9	6	2	1	75	10	1	373	6	1	658.09	49	14
16	35	9	6	2	1	75	10	1	374	6	2	7.74	49	1
16	35	9	6	2	1	75	10	1	374	6	2	758.12	49	16
16	35	9	6	2	1	75	10	1	375	6	10	11.17	49	1
16	35	9	6	2	1	75	10	1	376	6	9	60.12	49	2
16	35	9	6	2	1	75	10	1	376	6	9	733.75	49	15
16	35	9	6	2	1	75	10	1	377	6	7	10.42	49	1
16	35	9	6	2	1	75	10	1	377	6	7	778.4	49	16
16	35	9	6	2	1	75	10	1	378	16	7	11.11	49	1
16	35	9	6	2	1	75	10	1	379	16	3	0	-1	16
16	35	9	6	2	1	75	10	1	380	16	5	0	-1	16
16	35	9	6	2	1	75	10	1	381	6	5	674.74	49	14
16	35	9	6	2	1	75	10	1	382	16	6	8.07	49	1
16	35	9	6	2	1	75	10	1	383	6	8	566.98	49	12
16	35	9	6	2	1	75	10	1	384	6	1	563.07	49	12
16	35	9	6	2	1	75	10	1	385	6	6	660.03	49	14
16	35	9	6	2	1	75	10	1	386	6	3	7.57	49	1
16	35	9	6	2	1	75	10	1	386	6	3	681.26	49	14
16	35	9	6	2	1	75	10	1	387	16	8	8.97	49	1
16	35	9	6	2	1	75	10	1	388	6	4	658.71	49	14
16	35	9	6	2	1	75	10	1	389	6	7	10.43	49	1
16	35	9	6	2	1	75	10	1	389	6	7	734.73	49	15
16	35	9	6	2	1	75	10	1	390	6	1	10.7	49	1
16	35	9	6	2	1	75	10	1	390	6	1	761.54	49	16
16	35	9	6	2	1	75	10	1	391	6	2	10.6	49	1
16	35	9	6	2	1	75	10	1	391	6	2	759.93	49	16
16	35	9	6	2	1	75	10	1	392	6	5	10.03	49	1
16	35	9	6	2	1	75	10	1	392	6	5	610.77	49	13
16	35	9	6	2	1	75	10	1	393	16	1	0	-1	16
16	35	9	6	2	1	75	10	1	394	6	10	0	-1	16
16	35	9	6	2	1	75	10	1	395	16	4	8.28	49	1
16	35	9	6	2	1	75	10	1	396	6	4	583.55	49	12
16	35	9	6	2	1	75	10	1	397	6	9	611.35	49	13
16	35	9	6	2	1	75	10	1	398	6	6	665.5	49	14
16	35	9	6	2	1	75	10	1	399	6	3	10.59	49	1
16	35	9	6	2	1	75	10	1	399	6	3	661.17	49	14
16	35	9	6	2	1	75	10	1	400	6	8	9.63	49	1
16	35	9	6	2	1	75	10	1	401	16	5	113.81	49	3
16	35	9	6	2	1	75	10	1	402	6	6	575.47	49	12
16	35	9	6	2	1	75	10	1	403	16	9	0	-1	16
16	35	9	6	2	1	75	10	1	404	6	10	615.82	49	13
16	35	9	6	2	1	75	10	1	405	6	9	713.19	49	15
16	35	9	6	2	1	75	10	1	406	16	2	8.08	49	1
16	35	9	6	2	1	75	10	1	407	16	10	0	-1	16
16	35	9	6	2	1	75	10	1	408	6	5	593.12	49	12
16	35	9	6	2	1	75	10	1	409	16	4	0	-1	16
16	35	9	6	2	1	75	10	1	410	16	6	0	-1	16
16	35	9	6	2	1	75	10	1	411	6	7	758.18	49	16
16	35	9	6	2	1	75	10	1	412	16	7	10.13	49	1
16	35	9	6	2	1	75	10	1	413	6	4	460.11	49	10
16	35	9	6	2	1	75	10	1	414	16	8	0	-1	16
16	35	9	6	2	1	75	10	1	415	6	2	722.55	49	15
16	35	9	6	2	1	75	10	1	416	6	1	11.36	49	1
16	35	9	6	2	1	75	10	1	416	6	1	737.98	49	15
16	35	9	6	2	1	75	10	1	417	6	8	9.02	49	1
16	35	9	6	2	1	75	10	1	417	6	8	658.78	49	14
16	35	9	6	2	1	75	10	1	418	6	3	7.8	49	1
16	35	9	6	2	1	75	10	1	418	6	3	675.33	49	14
16	35	9	6	2	1	75	10	1	419	6	2	7.73	49	1
16	35	9	6	2	1	75	10	1	420	6	10	13.4	49	1
16	35	9	6	2	1	75	10	1	420	6	10	695.59	49	14
16	35	9	6	2	1	75	10	1	421	16	3	7.81	49	1
16	35	9	6	2	1	75	10	1	422	6	9	590.38	49	12
16	35	9	6	2	1	75	10	1	423	16	1	0	-1	16
16	35	9	6	2	1	75	10	1	424	6	7	757.67	49	16
16	35	9	6	2	1	75	10	1	425	6	6	13.36	49	1
16	35	9	6	2	1	75	10	1	425	6	6	641.98	49	13
16	35	9	6	2	1	75	10	1	426	16	6	12.24	49	1
16	35	9	6	2	1	75	10	1	427	6	5	566.32	49	12
16	35	9	6	2	1	75	10	1	428	16	7	0	-1	16
16	35	9	6	2	1	75	10	1	429	6	8	579.57	49	12
16	35	9	6	2	1	75	10	1	430	6	1	658.52	49	14
16	35	9	6	2	1	75	10	1	431	16	1	7.82	49	1
16	35	9	6	2	1	75	10	1	432	6	3	693.89	49	14
16	35	9	6	2	1	75	10	1	433	6	4	7.67	49	1
16	35	9	6	2	1	75	10	1	433	6	4	742.87	49	15
16	35	9	6	2	1	75	10	1	434	6	6	8.74	49	1
16	35	9	6	2	1	75	10	1	434	6	6	719.12	49	15
16	35	9	6	2	1	75	10	1	435	6	1	8.21	49	1
16	35	9	6	2	1	75	10	1	435	6	1	707.53	49	15
16	35	9	6	2	1	75	10	1	436	6	4	9.59	49	1
16	35	9	6	2	1	75	10	1	436	6	4	657.93	49	14
16	35	9	6	2	1	75	10	1	437	6	10	9.46	49	1
16	35	9	6	2	1	75	10	1	437	6	10	678.83	49	14
16	35	9	6	2	1	75	10	1	438	6	5	10.69	49	1
16	35	9	6	2	1	75	10	1	438	6	5	685.87	49	14
16	35	9	6	2	1	75	10	1	439	16	10	10.98	49	1
16	35	9	6	2	1	75	10	1	440	6	7	618.48	49	13
16	35	9	6	2	1	75	10	1	441	6	2	783.51	49	16
16	35	9	6	2	1	75	10	1	442	6	9	9.46	49	1
16	35	9	6	2	1	75	10	1	442	6	9	738.91	49	15
16	35	9	6	2	1	75	10	1	443	6	8	8.43	49	1
16	35	9	6	2	1	75	10	1	444	6	3	14.83	49	1
16	35	9	6	2	1	75	10	1	445	6	5	237.1	49	5
16	35	9	6	2	1	75	10	1	446	6	4	616.54	49	13
16	35	9	6	2	1	75	10	1	447	6	9	687.58	49	14
16	35	9	6	2	1	75	10	1	448	6	2	8.18	49	1
16	35	9	6	2	1	75	10	1	449	6	10	114.25	49	3
16	35	9	6	2	1	75	10	1	449	6	10	694.34	49	14
16	35	9	6	2	1	75	10	1	450	6	8	10.29	49	1
16	35	9	6	2	1	75	10	1	450	6	8	636.21	49	13
