SubjectNum	Age	Gender	PressedTask	Block Type	Block Repeat Num	Response Rate	Onset	Block	Trial	ImgType	ImgNum	RT	PressedC	FrameC
16	35	9	6	2	1	75	10	1	1	6	5	0	-1	16
16	35	9	6	2	1	75	10	1	2	6	10	211.4	49	5
16	35	9	6	2	1	75	10	1	2	6	10	411.64	49	9
16	35	9	6	2	1	75	10	1	3	6	4	319.81	49	7
16	35	9	6	2	1	75	10	1	4	6	9	63.78	49	2
16	35	9	6	2	1	75	10	1	4	6	9	775.85	49	16
16	35	9	6	2	1	75	10	1	5	16	7	10.24	49	1
16	35	9	6	2	1	75	10	1	5	16	7	737.52	49	15
16	35	9	6	2	1	75	10	1	6	6	2	10.03	49	1
16	35	9	6	2	1	75	10	1	7	6	3	87.83	49	2
16	35	9	6	2	1	75	10	1	7	6	3	719.53	49	15
16	35	9	6	2	1	75	10	1	8	16	9	10.53	49	1
16	35	9	6	2	1	75	10	1	9	6	8	778.16	49	16
16	35	9	6	2	1	75	10	1	10	16	2	9.28	49	1
16	35	9	6	2	1	75	10	1	11	6	7	0	-1	16
16	35	9	6	2	1	75	10	1	12	6	6	165.71	49	4
16	35	9	6	2	1	75	10	1	13	6	1	60.09	49	2
16	35	9	6	2	1	75	10	1	14	16	5	64.96	49	2
16	35	9	6	2	1	75	10	1	15	6	5	544.22	49	11
16	35	9	6	2	1	75	10	1	16	6	2	768.17	49	16
16	35	9	6	2	1	75	10	1	17	6	4	10.7	49	1
16	35	9	6	2	1	75	10	1	17	6	4	677.4	49	14
16	35	9	6	2	1	75	10	1	18	6	9	10.4	49	1
16	35	9	6	2	1	75	10	1	18	6	9	718.54	49	15
16	35	9	6	2	1	75	10	1	19	6	10	9.91	49	1
16	35	9	6	2	1	75	10	1	19	6	10	760.43	49	16
16	35	9	6	2	1	75	10	1	20	16	1	8.36	49	1
16	35	9	6	2	1	75	10	1	21	6	3	0	-1	16
16	35	9	6	2	1	75	10	1	22	16	10	9.3	49	1
16	35	9	6	2	1	75	10	1	23	6	7	592.27	49	12
16	35	9	6	2	1	75	10	1	24	16	4	0	-1	16
16	35	9	6	2	1	75	10	1	25	6	8	0	-1	16
16	35	9	6	2	1	75	10	1	26	16	3	42.66	49	1
16	35	9	6	2	1	75	10	1	27	6	6	623.06	49	13
16	35	9	6	2	1	75	10	1	28	6	1	0	-1	16
16	35	9	6	2	1	75	10	1	29	6	6	10.18	49	1
16	35	9	6	2	1	75	10	1	30	6	1	119.43	49	3
16	35	9	6	2	1	75	10	1	31	16	6	92.61	49	2
16	35	9	6	2	1	75	10	1	32	6	9	757.66	49	16
16	35	9	6	2	1	75	10	1	33	6	8	7.61	49	1
16	35	9	6	2	1	75	10	1	33	6	8	732.45	49	15
16	35	9	6	2	1	75	10	1	34	6	10	10.45	49	1
16	35	9	6	2	1	75	10	1	34	6	10	707.97	49	15
16	35	9	6	2	1	75	10	1	35	16	8	7.78	49	1
16	35	9	6	2	1	75	10	1	35	16	8	713.21	49	15
16	35	9	6	2	1	75	10	1	36	6	7	7.4	49	1
16	35	9	6	2	1	75	10	1	37	6	4	165.12	49	4
16	35	9	6	2	1	75	10	1	38	6	2	244.37	49	5
16	35	9	6	2	1	75	10	1	39	6	5	236.52	49	5
16	35	9	6	2	1	75	10	1	40	16	7	59.8	49	2
16	35	9	6	2	1	75	10	1	41	16	4	0	-1	16
16	35	9	6	2	1	75	10	1	42	6	3	0	-1	16
16	35	9	6	2	1	75	10	1	43	6	7	60.59	49	2
16	35	9	6	2	1	75	10	1	44	6	5	83.15	49	2
16	35	9	6	2	1	75	10	1	45	6	2	38.65	49	1
16	35	9	6	2	1	75	10	1	45	6	2	782.35	49	16
16	35	9	6	2	1	75	10	1	46	6	1	8.22	49	1
16	35	9	6	2	1	75	10	1	46	6	1	727.65	49	15
16	35	9	6	2	1	75	10	1	47	6	9	8.64	49	1
16	35	9	6	2	1	75	10	1	47	6	9	791.06	49	16
16	35	9	6	2	1	75	10	1	48	6	4	7.81	49	1
16	35	9	6	2	1	75	10	1	49	16	5	35.36	49	1
16	35	9	6	2	1	75	10	1	50	16	1	0	-1	16
16	35	9	6	2	1	75	10	1	51	6	10	0	-1	16
16	35	9	6	2	1	75	10	1	52	6	6	109.89	49	3
16	35	9	6	2	1	75	10	1	53	6	3	77.95	49	2
16	35	9	6	2	1	75	10	1	53	6	3	645.95	49	13
16	35	9	6	2	1	75	10	1	54	6	8	0	-1	16
16	35	9	6	2	1	75	10	1	55	16	2	579.83	49	12
16	35	9	6	2	1	75	10	1	56	6	2	0	-1	16
16	35	9	6	2	1	75	10	1	57	6	10	0	-1	16
16	35	9	6	2	1	75	10	1	58	6	9	693.35	49	14
16	35	9	6	2	1	75	10	1	59	16	10	7.43	49	1
16	35	9	6	2	1	75	10	1	60	6	1	8.67	49	1
16	35	9	6	2	1	75	10	1	60	6	1	681.4	49	14
16	35	9	6	2	1	75	10	1	61	6	8	7.45	49	1
16	35	9	6	2	1	75	10	1	62	6	3	20.39	49	1
16	35	9	6	2	1	75	10	1	62	6	3	776.52	49	16
16	35	9	6	2	1	75	10	1	63	6	6	8.57	49	1
16	35	9	6	2	1	75	10	1	64	6	5	68.66	49	2
16	35	9	6	2	1	75	10	1	64	6	5	661.65	49	14
16	35	9	6	2	1	75	10	1	65	6	7	0	-1	16
16	35	9	6	2	1	75	10	1	66	6	4	109.82	49	3
16	35	9	6	2	1	75	10	1	66	6	4	732.76	49	15
16	35	9	6	2	1	75	10	1	67	6	7	9.99	49	1
16	35	9	6	2	1	75	10	1	68	6	4	228.38	49	5
16	35	9	6	2	1	75	10	1	69	6	10	85.82	49	2
16	35	9	6	2	1	75	10	1	70	6	2	76.31	49	2
16	35	9	6	2	1	75	10	1	71	6	1	223.54	49	5
16	35	9	6	2	1	75	10	1	71	6	1	782.46	49	16
16	35	9	6	2	1	75	10	1	72	6	9	7.88	49	1
16	35	9	6	2	1	75	10	1	73	6	5	41.61	49	1
16	35	9	6	2	1	75	10	1	73	6	5	758.39	49	16
16	35	9	6	2	1	75	10	1	74	6	6	10.85	49	1
16	35	9	6	2	1	75	10	1	75	6	3	109.59	49	3
16	35	9	6	2	1	75	10	1	76	6	8	157.51	49	4
16	35	9	6	2	1	75	10	1	77	6	5	209.45	49	5
16	35	9	6	2	1	75	10	1	78	16	9	19.25	49	1
16	35	9	6	2	1	75	10	1	79	16	6	188.75	49	4
16	35	9	6	2	1	75	10	1	80	16	3	0	-1	16
16	35	9	6	2	1	75	10	1	81	16	8	0	-1	16
16	35	9	6	2	1	75	10	1	82	6	4	659.77	49	14
16	35	9	6	2	1	75	10	1	83	16	7	10.35	49	1
16	35	9	6	2	1	75	10	1	84	6	10	660	49	14
16	35	9	6	2	1	75	10	1	85	6	2	7.92	49	1
16	35	9	6	2	1	75	10	1	86	6	9	307.4	49	7
16	35	9	6	2	1	75	10	1	87	6	7	68.65	49	2
16	35	9	6	2	1	75	10	1	88	6	8	0	-1	16
16	35	9	6	2	1	75	10	1	89	6	6	536.59	49	11
16	35	9	6	2	1	75	10	1	90	6	3	594.09	49	12
16	35	9	6	2	1	75	10	1	91	6	1	782.87	49	16
16	35	9	6	2	1	75	10	1	92	6	7	10.02	49	1
16	35	9	6	2	1	75	10	1	93	16	9	81.5	49	2
16	35	9	6	2	1	75	10	1	93	16	9	760.67	49	16
16	35	9	6	2	1	75	10	1	94	6	5	9.83	49	1
16	35	9	6	2	1	75	10	1	94	6	5	768.49	49	16
16	35	9	6	2	1	75	10	1	95	6	2	8.89	49	1
16	35	9	6	2	1	75	10	1	96	6	1	57.74	49	2
16	35	9	6	2	1	75	10	1	96	6	1	745.32	49	15
16	35	9	6	2	1	75	10	1	97	6	9	7.67	49	1
16	35	9	6	2	1	75	10	1	97	6	9	657.27	49	14
16	35	9	6	2	1	75	10	1	98	16	2	7.81	49	1
16	35	9	6	2	1	75	10	1	99	6	4	696.67	49	14
16	35	9	6	2	1	75	10	1	100	16	4	8.06	49	1
16	35	9	6	2	1	75	10	1	101	6	10	727.02	49	15
16	35	9	6	2	1	75	10	1	102	6	3	9.33	49	1
16	35	9	6	2	1	75	10	1	102	6	3	729.57	49	15
16	35	9	6	2	1	75	10	1	103	6	6	9.82	49	1
16	35	9	6	2	1	75	10	1	103	6	6	708.39	49	15
16	35	9	6	2	1	75	10	1	104	6	8	10.18	49	1
16	35	9	6	2	1	75	10	1	105	6	5	123.61	49	3
16	35	9	6	2	1	75	10	1	106	6	9	14.69	49	1
16	35	9	6	2	1	75	10	1	107	16	10	62.11	49	2
16	35	9	6	2	1	75	10	1	108	6	4	658.02	49	14
16	35	9	6	2	1	75	10	1	109	16	1	0	-1	16
16	35	9	6	2	1	75	10	1	110	6	2	0	-1	16
16	35	9	6	2	1	75	10	1	111	6	10	124.03	49	3
16	35	9	6	2	1	75	10	1	111	6	10	723.9	49	15
16	35	9	6	2	1	75	10	1	112	6	6	10.54	49	1
16	35	9	6	2	1	75	10	1	112	6	6	717.47	49	15
16	35	9	6	2	1	75	10	1	113	16	5	10.53	49	1
16	35	9	6	2	1	75	10	1	114	6	3	637.2	49	13
16	35	9	6	2	1	75	10	1	115	6	7	0	-1	16
16	35	9	6	2	1	75	10	1	116	16	3	10.51	49	1
16	35	9	6	2	1	75	10	1	117	16	6	0	-1	16
16	35	9	6	2	1	75	10	1	118	16	8	0	-1	16
16	35	9	6	2	1	75	10	1	119	6	8	675.38	49	14
16	35	9	6	2	1	75	10	1	120	6	1	10.48	49	1
16	35	9	6	2	1	75	10	1	120	6	1	760.49	49	16
16	35	9	6	2	1	75	10	1	121	16	5	8.78	49	1
16	35	9	6	2	1	75	10	1	122	6	5	541.35	49	11
16	35	9	6	2	1	75	10	1	123	6	2	0	-1	16
16	35	9	6	2	1	75	10	1	124	16	4	60.2	49	2
16	35	9	6	2	1	75	10	1	124	16	4	741.74	49	15
16	35	9	6	2	1	75	10	1	125	16	9	7.93	49	1
16	35	9	6	2	1	75	10	1	126	16	10	0	-1	16
16	35	9	6	2	1	75	10	1	127	6	10	679.1	49	14
16	35	9	6	2	1	75	10	1	128	16	2	8.24	49	1
16	35	9	6	2	1	75	10	1	129	16	6	0	-1	16
16	35	9	6	2	1	75	10	1	130	16	8	661.3	49	14
16	35	9	6	2	1	75	10	1	131	16	7	10.18	49	1
16	35	9	6	2	1	75	10	1	132	6	9	0	-1	16
16	35	9	6	2	1	75	10	1	133	6	4	164.91	49	4
16	35	9	6	2	1	75	10	1	133	6	4	759.62	49	16
16	35	9	6	2	1	75	10	1	134	6	8	9.57	49	1
16	35	9	6	2	1	75	10	1	135	6	7	135.44	49	3
16	35	9	6	2	1	75	10	1	136	6	3	158.95	49	4
16	35	9	6	2	1	75	10	1	137	6	6	33.08	49	1
16	35	9	6	2	1	75	10	1	138	6	1	18.3	49	1
16	35	9	6	2	1	75	10	1	139	16	3	142.6	49	3
16	35	9	6	2	1	75	10	1	140	16	1	0	-1	16
16	35	9	6	2	1	75	10	1	141	16	6	0	-1	16
16	35	9	6	2	1	75	10	1	142	6	7	729.21	49	15
16	35	9	6	2	1	75	10	1	143	6	2	10.16	49	1
16	35	9	6	2	1	75	10	1	144	16	10	109.38	49	3
16	35	9	6	2	1	75	10	1	145	6	10	683.17	49	14
16	35	9	6	2	1	75	10	1	146	6	4	10.39	49	1
16	35	9	6	2	1	75	10	1	146	6	4	715.1	49	15
16	35	9	6	2	1	75	10	1	147	6	5	9.25	49	1
16	35	9	6	2	1	75	10	1	147	6	5	657.96	49	14
16	35	9	6	2	1	75	10	1	148	6	1	8.78	49	1
16	35	9	6	2	1	75	10	1	149	6	9	62.63	49	2
16	35	9	6	2	1	75	10	1	149	6	9	725.55	49	15
16	35	9	6	2	1	75	10	1	150	6	6	7.57	49	1
16	35	9	6	2	1	75	10	1	150	6	6	657.13	49	14
16	35	9	6	2	1	75	10	1	151	6	3	0	-1	16
16	35	9	6	2	1	75	10	1	152	6	8	187.57	49	4
16	35	9	6	2	1	75	10	1	153	6	7	210.11	49	5
16	35	9	6	2	1	75	10	1	154	6	9	265.59	49	6
16	35	9	6	2	1	75	10	1	155	6	4	359.69	49	8
16	35	9	6	2	1	75	10	1	156	6	2	769.13	49	16
16	35	9	6	2	1	75	10	1	157	6	10	13.72	49	1
16	35	9	6	2	1	75	10	1	158	6	5	27.67	49	1
16	35	9	6	2	1	75	10	1	158	6	5	728.96	49	15
16	35	9	6	2	1	75	10	1	159	6	1	10.49	49	1
16	35	9	6	2	1	75	10	1	159	6	1	738.83	49	15
16	35	9	6	2	1	75	10	1	160	6	3	9.7	49	1
16	35	9	6	2	1	75	10	1	160	6	3	721.53	49	15
16	35	9	6	2	1	75	10	1	161	16	4	11.48	49	1
16	35	9	6	2	1	75	10	1	162	6	6	0	-1	16
16	35	9	6	2	1	75	10	1	163	16	8	124.2	49	3
16	35	9	6	2	1	75	10	1	163	16	8	719.85	49	15
16	35	9	6	2	1	75	10	1	164	6	8	8.49	49	1
16	35	9	6	2	1	75	10	1	165	6	6	0	-1	16
16	35	9	6	2	1	75	10	1	166	16	7	220.11	49	5
16	35	9	6	2	1	75	10	1	167	6	4	545.22	49	11
16	35	9	6	2	1	75	10	1	168	6	5	667.9	49	14
16	35	9	6	2	1	75	10	1	169	6	10	723.16	49	15
16	35	9	6	2	1	75	10	1	170	6	9	9.99	49	1
16	35	9	6	2	1	75	10	1	170	6	9	759.87	49	16
16	35	9	6	2	1	75	10	1	171	6	7	10.6	49	1
16	35	9	6	2	1	75	10	1	172	16	5	279.05	49	6
16	35	9	6	2	1	75	10	1	173	6	2	660.71	49	14
16	35	9	6	2	1	75	10	1	174	16	2	0	-1	16
16	35	9	6	2	1	75	10	1	175	6	1	0	-1	16
16	35	9	6	2	1	75	10	1	176	6	8	177.86	49	4
16	35	9	6	2	1	75	10	1	176	6	8	769.75	49	16
16	35	9	6	2	1	75	10	1	177	6	3	8.35	49	1
16	35	9	6	2	1	75	10	1	177	6	3	658.76	49	14
16	35	9	6	2	1	75	10	1	178	6	5	7.81	49	1
16	35	9	6	2	1	75	10	1	178	6	5	656.9	49	14
16	35	9	6	2	1	75	10	1	179	6	4	10.4	49	1
16	35	9	6	2	1	75	10	1	179	6	4	687.99	49	14
16	35	9	6	2	1	75	10	1	180	6	2	7.42	49	1
16	35	9	6	2	1	75	10	1	181	6	10	159.96	49	4
16	35	9	6	2	1	75	10	1	182	6	9	42.35	49	1
16	35	9	6	2	1	75	10	1	183	6	6	175.35	49	4
16	35	9	6	2	1	75	10	1	184	16	9	215.84	49	5
16	35	9	6	2	1	75	10	1	185	16	1	0	-1	16
16	35	9	6	2	1	75	10	1	186	6	8	0	-1	16
16	35	9	6	2	1	75	10	1	187	6	7	91.78	49	2
16	35	9	6	2	1	75	10	1	188	6	3	135.8	49	3
16	35	9	6	2	1	75	10	1	189	6	1	79.04	49	2
16	35	9	6	2	1	75	10	1	190	6	6	115.9	49	3
16	35	9	6	2	1	75	10	1	191	16	3	109.78	49	3
16	35	9	6	2	1	75	10	1	192	6	4	690.65	49	14
16	35	9	6	2	1	75	10	1	193	6	1	7.38	49	1
16	35	9	6	2	1	75	10	1	193	6	1	757.1	49	16
16	35	9	6	2	1	75	10	1	194	6	2	10.55	49	1
16	35	9	6	2	1	75	10	1	195	16	6	111.85	49	3
16	35	9	6	2	1	75	10	1	196	6	5	637.56	49	13
16	35	9	6	2	1	75	10	1	197	6	9	718.72	49	15
16	35	9	6	2	1	75	10	1	198	16	8	12.73	49	1
16	35	9	6	2	1	75	10	1	199	16	10	0	-1	16
16	35	9	6	2	1	75	10	1	200	6	10	765.97	49	16
16	35	9	6	2	1	75	10	1	201	6	7	8.97	49	1
16	35	9	6	2	1	75	10	1	201	6	7	775.67	49	16
16	35	9	6	2	1	75	10	1	202	6	8	8.37	49	1
16	35	9	6	2	1	75	10	1	203	16	2	17.09	49	1
16	35	9	6	2	1	75	10	1	204	6	3	64.3	49	2
16	35	9	6	2	1	75	10	1	205	16	7	494.51	49	10
16	35	9	6	2	1	75	10	1	206	6	7	778.86	49	16
16	35	9	6	2	1	75	10	1	207	6	1	10.58	49	1
16	35	9	6	2	1	75	10	1	208	6	5	481.17	49	10
16	35	9	6	2	1	75	10	1	209	16	1	0	-1	16
16	35	9	6	2	1	75	10	1	210	6	10	86.08	49	2
16	35	9	6	2	1	75	10	1	211	6	4	731.96	49	15
16	35	9	6	2	1	75	10	1	212	16	4	10.42	49	1
16	35	9	6	2	1	75	10	1	213	6	2	0	-1	16
16	35	9	6	2	1	75	10	1	214	6	9	62.15	49	2
16	35	9	6	2	1	75	10	1	215	16	5	57.97	49	2
16	35	9	6	2	1	75	10	1	216	6	3	0	-1	16
16	35	9	6	2	1	75	10	1	217	6	6	69.79	49	2
16	35	9	6	2	1	75	10	1	218	6	8	10.4	49	1
16	35	9	6	2	1	75	10	1	219	6	6	179.58	49	4
16	35	9	6	2	1	75	10	1	220	6	4	109.5	49	3
16	35	9	6	2	1	75	10	1	221	16	9	11.55	49	1
16	35	9	6	2	1	75	10	1	222	6	9	669.13	49	14
16	35	9	6	2	1	75	10	1	223	6	10	10.08	49	1
16	35	9	6	2	1	75	10	1	223	6	10	709.6	49	15
16	35	9	6	2	1	75	10	1	224	6	1	10.37	49	1
16	35	9	6	2	1	75	10	1	225	16	3	29.67	49	1
