SubjectNum	Age	Gender	PressedTask	Block Type	Block Repeat Num	Response Rate	Onset	Block	Trial	ImgType	ImgNum	RT	PressedC	FrameC
16	35	9	6	2	1	75	10	1	1	6	5	0	-1	16
16	35	9	6	2	1	75	10	1	2	6	10	0	-1	16
16	35	9	6	2	1	75	10	1	3	6	4	63.21	49	2
16	35	9	6	2	1	75	10	1	3	6	4	309.17	49	7
16	35	9	6	2	1	75	10	1	3	6	4	775.23	49	16
16	35	9	6	2	1	75	10	1	4	6	9	14.98	49	1
16	35	9	6	2	1	75	10	1	5	16	7	21.8	49	1
16	35	9	6	2	1	75	10	1	6	6	2	640.84	49	13
16	35	9	6	2	1	75	10	1	7	6	3	8.15	49	1
16	35	9	6	2	1	75	10	1	7	6	3	669.3	49	14
16	35	9	6	2	1	75	10	1	8	16	9	8.76	49	1
16	35	9	6	2	1	75	10	1	9	6	8	612.89	49	13
16	35	9	6	2	1	75	10	1	10	16	2	10.33	49	1
16	35	9	6	2	1	75	10	1	11	6	7	469.3	49	10
16	35	9	6	2	1	75	10	1	12	6	6	722.06	49	15
16	35	9	6	2	1	75	10	1	13	6	1	8.97	49	1
16	35	9	6	2	1	75	10	1	14	16	5	137.81	49	3
16	35	9	6	2	1	75	10	1	15	6	5	513.37	49	11
16	35	9	6	2	1	75	10	1	15	6	5	760.56	49	16
16	35	9	6	2	1	75	10	1	16	6	2	12.6	49	1
16	35	9	6	2	1	75	10	1	16	6	2	662.13	49	14
16	35	9	6	2	1	75	10	1	17	6	4	7.14	49	1
16	35	9	6	2	1	75	10	1	17	6	4	725.64	49	15
16	35	9	6	2	1	75	10	1	18	6	9	10.13	49	1
16	35	9	6	2	1	75	10	1	18	6	9	673.59	49	14
16	35	9	6	2	1	75	10	1	19	6	10	8.69	49	1
16	35	9	6	2	1	75	10	1	19	6	10	738.37	49	15
16	35	9	6	2	1	75	10	1	20	16	1	11.71	49	1
16	35	9	6	2	1	75	10	1	21	6	3	717.56	49	15
16	35	9	6	2	1	75	10	1	22	16	10	11.82	49	1
16	35	9	6	2	1	75	10	1	23	6	7	120.85	49	3
16	35	9	6	2	1	75	10	1	24	16	4	679.58	49	14
16	35	9	6	2	1	75	10	1	25	6	8	10.82	49	1
16	35	9	6	2	1	75	10	1	26	16	3	0	-1	16
16	35	9	6	2	1	75	10	1	27	6	6	645.16	49	13
16	35	9	6	2	1	75	10	1	28	6	1	8.97	49	1
16	35	9	6	2	1	75	10	1	28	6	1	778.35	49	16
16	35	9	6	2	1	75	10	1	29	6	6	7.99	49	1
16	35	9	6	2	1	75	10	1	29	6	6	724.98	49	15
16	35	9	6	2	1	75	10	1	30	6	1	8.16	49	1
16	35	9	6	2	1	75	10	1	30	6	1	685.39	49	14
16	35	9	6	2	1	75	10	1	31	16	6	8.66	49	1
16	35	9	6	2	1	75	10	1	32	6	9	630.59	49	13
16	35	9	6	2	1	75	10	1	33	6	8	10.07	49	1
16	35	9	6	2	1	75	10	1	34	6	10	37.57	49	1
16	35	9	6	2	1	75	10	1	35	16	8	177.76	49	4
16	35	9	6	2	1	75	10	1	36	6	7	0	-1	16
16	35	9	6	2	1	75	10	1	37	6	4	8.38	49	1
16	35	9	6	2	1	75	10	1	37	6	4	630.74	49	13
16	35	9	6	2	1	75	10	1	38	6	2	7.97	49	1
16	35	9	6	2	1	75	10	1	39	6	5	68.86	49	2
16	35	9	6	2	1	75	10	1	40	16	7	382.84	49	8
16	35	9	6	2	1	75	10	1	41	16	4	0	-1	16
16	35	9	6	2	1	75	10	1	42	6	3	708.34	49	15
16	35	9	6	2	1	75	10	1	43	6	7	10.04	49	1
16	35	9	6	2	1	75	10	1	44	6	5	160.24	49	4
16	35	9	6	2	1	75	10	1	45	6	2	113.24	49	3
16	35	9	6	2	1	75	10	1	46	6	1	238.97	49	5
16	35	9	6	2	1	75	10	1	47	6	9	408.74	49	9
16	35	9	6	2	1	75	10	1	48	6	4	673.76	49	14
16	35	9	6	2	1	75	10	1	49	16	5	7.91	49	1
16	35	9	6	2	1	75	10	1	50	16	1	607.48	49	13
16	35	9	6	2	1	75	10	1	51	6	10	7.74	49	1
16	35	9	6	2	1	75	10	1	52	6	6	410.38	49	9
16	35	9	6	2	1	75	10	1	53	6	3	783.99	49	16
16	35	9	6	2	1	75	10	1	54	6	8	8.2	49	1
16	35	9	6	2	1	75	10	1	55	16	2	359.12	49	8
16	35	9	6	2	1	75	10	1	56	6	2	541.9	49	11
16	35	9	6	2	1	75	10	1	57	6	10	566.7	49	12
16	35	9	6	2	1	75	10	1	58	6	9	786.24	49	16
16	35	9	6	2	1	75	10	1	59	16	10	10.55	49	1
16	35	9	6	2	1	75	10	1	59	16	10	211.11	49	5
16	35	9	6	2	1	75	10	1	60	6	1	0	-1	16
16	35	9	6	2	1	75	10	1	61	6	8	9.08	49	1
16	35	9	6	2	1	75	10	1	61	6	8	211.51	49	5
16	35	9	6	2	1	75	10	1	62	6	3	75.96	49	2
16	35	9	6	2	1	75	10	1	63	6	6	92.78	49	2
16	35	9	6	2	1	75	10	1	64	6	5	81.51	49	2
16	35	9	6	2	1	75	10	1	65	6	7	477	49	10
16	35	9	6	2	1	75	10	1	65	6	7	707.73	49	15
16	35	9	6	2	1	75	10	1	66	6	4	741.72	49	15
16	35	9	6	2	1	75	10	1	67	6	7	9.18	49	1
16	35	9	6	2	1	75	10	1	68	6	4	328.11	49	7
16	35	9	6	2	1	75	10	1	69	6	10	590.25	49	12
16	35	9	6	2	1	75	10	1	70	6	2	12.6	49	1
16	35	9	6	2	1	75	10	1	70	6	2	710.08	49	15
16	35	9	6	2	1	75	10	1	71	6	1	10.3	49	1
16	35	9	6	2	1	75	10	1	71	6	1	663.41	49	14
16	35	9	6	2	1	75	10	1	72	6	9	8.64	49	1
16	35	9	6	2	1	75	10	1	72	6	9	715.6	49	15
16	35	9	6	2	1	75	10	1	73	6	5	8.94	49	1
16	35	9	6	2	1	75	10	1	73	6	5	637.17	49	13
16	35	9	6	2	1	75	10	1	74	6	6	8.26	49	1
16	35	9	6	2	1	75	10	1	74	6	6	690.92	49	14
16	35	9	6	2	1	75	10	1	75	6	3	7.77	49	1
16	35	9	6	2	1	75	10	1	75	6	3	779.9	49	16
16	35	9	6	2	1	75	10	1	76	6	8	8.51	49	1
16	35	9	6	2	1	75	10	1	76	6	8	209.96	49	5
16	35	9	6	2	1	75	10	1	77	6	5	146.31	49	3
16	35	9	6	2	1	75	10	1	78	16	9	17.13	49	1
16	35	9	6	2	1	75	10	1	79	16	6	0	-1	16
16	35	9	6	2	1	75	10	1	80	16	3	0	-1	16
16	35	9	6	2	1	75	10	1	81	16	8	0	-1	16
16	35	9	6	2	1	75	10	1	82	6	4	632.78	49	13
16	35	9	6	2	1	75	10	1	83	16	7	13.29	49	1
16	35	9	6	2	1	75	10	1	84	6	10	409.66	49	9
16	35	9	6	2	1	75	10	1	84	6	10	611.59	49	13
16	35	9	6	2	1	75	10	1	85	6	2	0	-1	16
16	35	9	6	2	1	75	10	1	86	6	9	130.51	49	3
16	35	9	6	2	1	75	10	1	87	6	7	71.35	49	2
16	35	9	6	2	1	75	10	1	88	6	8	157.57	49	4
16	35	9	6	2	1	75	10	1	88	6	8	359.19	49	8
16	35	9	6	2	1	75	10	1	89	6	6	187.45	49	4
16	35	9	6	2	1	75	10	1	90	6	3	186.94	49	4
16	35	9	6	2	1	75	10	1	90	6	3	410.03	49	9
16	35	9	6	2	1	75	10	1	91	6	1	430.73	49	9
16	35	9	6	2	1	75	10	1	92	6	7	637.61	49	13
16	35	9	6	2	1	75	10	1	93	16	9	8.37	49	1
16	35	9	6	2	1	75	10	1	94	6	5	559.97	49	12
16	35	9	6	2	1	75	10	1	95	6	2	635.98	49	13
16	35	9	6	2	1	75	10	1	96	6	1	12.7	49	1
16	35	9	6	2	1	75	10	1	96	6	1	790.82	49	16
16	35	9	6	2	1	75	10	1	97	6	9	9.21	49	1
16	35	9	6	2	1	75	10	1	98	16	2	208.24	49	5
16	35	9	6	2	1	75	10	1	99	6	4	383.95	49	8
16	35	9	6	2	1	75	10	1	99	6	4	607.38	49	13
16	35	9	6	2	1	75	10	1	100	16	4	534	49	11
16	35	9	6	2	1	75	10	1	100	16	4	759	49	16
16	35	9	6	2	1	75	10	1	101	6	10	0	-1	16
16	35	9	6	2	1	75	10	1	102	6	3	585.96	49	12
16	35	9	6	2	1	75	10	1	103	6	6	657.69	49	14
16	35	9	6	2	1	75	10	1	104	6	8	8.15	49	1
16	35	9	6	2	1	75	10	1	105	6	5	176.93	49	4
16	35	9	6	2	1	75	10	1	106	6	9	221.59	49	5
16	35	9	6	2	1	75	10	1	107	16	10	411.37	49	9
16	35	9	6	2	1	75	10	1	108	6	4	775.88	49	16
16	35	9	6	2	1	75	10	1	109	16	1	10	49	1
16	35	9	6	2	1	75	10	1	110	6	2	0	-1	16
16	35	9	6	2	1	75	10	1	111	6	10	159.89	49	4
16	35	9	6	2	1	75	10	1	112	6	6	134.17	49	3
16	35	9	6	2	1	75	10	1	113	16	5	357.09	49	8
16	35	9	6	2	1	75	10	1	114	6	3	521.86	49	11
16	35	9	6	2	1	75	10	1	115	6	7	0	-1	16
16	35	9	6	2	1	75	10	1	116	16	3	136.51	49	3
16	35	9	6	2	1	75	10	1	117	16	6	560.16	49	12
16	35	9	6	2	1	75	10	1	117	16	6	760.45	49	16
16	35	9	6	2	1	75	10	1	118	16	8	0	-1	16
16	35	9	6	2	1	75	10	1	119	6	8	629.9	49	13
16	35	9	6	2	1	75	10	1	120	6	1	662.5	49	14
16	35	9	6	2	1	75	10	1	121	16	5	10.96	49	1
16	35	9	6	2	1	75	10	1	122	6	5	439.2	49	9
16	35	9	6	2	1	75	10	1	123	6	2	689.94	49	14
16	35	9	6	2	1	75	10	1	124	16	4	8.09	49	1
16	35	9	6	2	1	75	10	1	125	16	9	0	-1	16
16	35	9	6	2	1	75	10	1	126	16	10	0	-1	16
16	35	9	6	2	1	75	10	1	127	6	10	723.94	49	15
16	35	9	6	2	1	75	10	1	128	16	2	7.83	49	1
16	35	9	6	2	1	75	10	1	129	16	6	557.9	49	12
16	35	9	6	2	1	75	10	1	130	16	8	0	-1	16
16	35	9	6	2	1	75	10	1	131	16	7	0	-1	16
16	35	9	6	2	1	75	10	1	132	6	9	678.55	49	14
16	35	9	6	2	1	75	10	1	133	6	4	11.39	49	1
16	35	9	6	2	1	75	10	1	133	6	4	710.36	49	15
16	35	9	6	2	1	75	10	1	134	6	8	9.21	49	1
16	35	9	6	2	1	75	10	1	135	6	7	137.63	49	3
16	35	9	6	2	1	75	10	1	135	6	7	358.64	49	8
16	35	9	6	2	1	75	10	1	136	6	3	275.8	49	6
16	35	9	6	2	1	75	10	1	137	6	6	359.23	49	8
16	35	9	6	2	1	75	10	1	138	6	1	740.03	49	15
16	35	9	6	2	1	75	10	1	139	16	3	7.26	49	1
16	35	9	6	2	1	75	10	1	140	16	1	671.46	49	14
16	35	9	6	2	1	75	10	1	141	16	6	8.59	49	1
16	35	9	6	2	1	75	10	1	142	6	7	790.41	49	16
16	35	9	6	2	1	75	10	1	143	6	2	10.16	49	1
16	35	9	6	2	1	75	10	1	144	16	10	262.1	49	6
16	35	9	6	2	1	75	10	1	145	6	10	740.12	49	15
16	35	9	6	2	1	75	10	1	146	6	4	10.81	49	1
16	35	9	6	2	1	75	10	1	146	6	4	759.86	49	16
16	35	9	6	2	1	75	10	1	147	6	5	9.48	49	1
16	35	9	6	2	1	75	10	1	148	6	1	108.39	49	3
16	35	9	6	2	1	75	10	1	148	6	1	759.52	49	16
16	35	9	6	2	1	75	10	1	149	6	9	8.94	49	1
16	35	9	6	2	1	75	10	1	149	6	9	257.43	49	6
16	35	9	6	2	1	75	10	1	149	6	9	783.46	49	16
16	35	9	6	2	1	75	10	1	150	6	6	8.59	49	1
16	35	9	6	2	1	75	10	1	150	6	6	717.02	49	15
16	35	9	6	2	1	75	10	1	151	6	3	7.81	49	1
16	35	9	6	2	1	75	10	1	152	6	8	7.69	49	1
16	35	9	6	2	1	75	10	1	153	6	7	330.94	49	7
16	35	9	6	2	1	75	10	1	154	6	9	343.78	49	7
16	35	9	6	2	1	75	10	1	155	6	4	488.24	49	10
16	35	9	6	2	1	75	10	1	156	6	2	769.6	49	16
16	35	9	6	2	1	75	10	1	157	6	10	10.21	49	1
16	35	9	6	2	1	75	10	1	158	6	5	67.32	49	2
16	35	9	6	2	1	75	10	1	159	6	1	109.31	49	3
16	35	9	6	2	1	75	10	1	160	6	3	259.48	49	6
16	35	9	6	2	1	75	10	1	161	16	4	345.62	49	7
16	35	9	6	2	1	75	10	1	162	6	6	683.67	49	14
16	35	9	6	2	1	75	10	1	163	16	8	10.6	49	1
16	35	9	6	2	1	75	10	1	164	6	8	607.9	49	13
16	35	9	6	2	1	75	10	1	165	6	6	712.66	49	15
16	35	9	6	2	1	75	10	1	166	16	7	9.33	49	1
16	35	9	6	2	1	75	10	1	167	6	4	676.75	49	14
16	35	9	6	2	1	75	10	1	168	6	5	10.72	49	1
16	35	9	6	2	1	75	10	1	168	6	5	668.69	49	14
16	35	9	6	2	1	75	10	1	169	6	10	9.93	49	1
16	35	9	6	2	1	75	10	1	169	6	10	681.95	49	14
16	35	9	6	2	1	75	10	1	170	6	9	8.73	49	1
16	35	9	6	2	1	75	10	1	170	6	9	723.52	49	15
16	35	9	6	2	1	75	10	1	171	6	7	7.87	49	1
16	35	9	6	2	1	75	10	1	172	16	5	57.4	49	2
16	35	9	6	2	1	75	10	1	172	16	5	257.71	49	6
16	35	9	6	2	1	75	10	1	173	6	2	0	-1	16
16	35	9	6	2	1	75	10	1	174	16	2	78.83	49	2
16	35	9	6	2	1	75	10	1	175	6	1	790.84	49	16
16	35	9	6	2	1	75	10	1	176	6	8	8.51	49	1
16	35	9	6	2	1	75	10	1	176	6	8	209.64	49	5
16	35	9	6	2	1	75	10	1	177	6	3	167.8	49	4
16	35	9	6	2	1	75	10	1	178	6	5	220.03	49	5
16	35	9	6	2	1	75	10	1	179	6	4	162.51	49	4
16	35	9	6	2	1	75	10	1	180	6	2	0	-1	16
16	35	9	6	2	1	75	10	1	181	6	10	60.8	49	2
16	35	9	6	2	1	75	10	1	182	6	9	236.54	49	5
16	35	9	6	2	1	75	10	1	183	6	6	207.56	49	5
16	35	9	6	2	1	75	10	1	184	16	9	107.56	49	3
16	35	9	6	2	1	75	10	1	185	16	1	0	-1	16
16	35	9	6	2	1	75	10	1	186	6	8	0	-1	16
16	35	9	6	2	1	75	10	1	187	6	7	723.44	49	15
16	35	9	6	2	1	75	10	1	188	6	3	8.19	49	1
16	35	9	6	2	1	75	10	1	188	6	3	716.86	49	15
16	35	9	6	2	1	75	10	1	189	6	1	10.32	49	1
16	35	9	6	2	1	75	10	1	190	6	6	27.47	49	1
16	35	9	6	2	1	75	10	1	191	16	3	184.15	49	4
16	35	9	6	2	1	75	10	1	192	6	4	488.78	49	10
16	35	9	6	2	1	75	10	1	193	6	1	659.35	49	14
16	35	9	6	2	1	75	10	1	194	6	2	8.9	49	1
16	35	9	6	2	1	75	10	1	195	16	6	22.17	49	1
16	35	9	6	2	1	75	10	1	196	6	5	590.14	49	12
16	35	9	6	2	1	75	10	1	197	6	9	668.94	49	14
16	35	9	6	2	1	75	10	1	198	16	8	7.72	49	1
16	35	9	6	2	1	75	10	1	198	16	8	709.87	49	15
16	35	9	6	2	1	75	10	1	199	16	10	11.76	49	1
16	35	9	6	2	1	75	10	1	200	6	10	681.27	49	14
16	35	9	6	2	1	75	10	1	201	6	7	10.59	49	1
16	35	9	6	2	1	75	10	1	202	6	8	32.54	49	1
16	35	9	6	2	1	75	10	1	203	16	2	109.87	49	3
16	35	9	6	2	1	75	10	1	204	6	3	530.38	49	11
16	35	9	6	2	1	75	10	1	205	16	7	0	-1	16
16	35	9	6	2	1	75	10	1	206	6	7	608.38	49	13
16	35	9	6	2	1	75	10	1	207	6	1	662.22	49	14
16	35	9	6	2	1	75	10	1	208	6	5	7.94	49	1
16	35	9	6	2	1	75	10	1	208	6	5	688.79	49	14
16	35	9	6	2	1	75	10	1	209	16	1	10.62	49	1
16	35	9	6	2	1	75	10	1	210	6	10	537.38	49	11
16	35	9	6	2	1	75	10	1	211	6	4	715.45	49	15
16	35	9	6	2	1	75	10	1	212	16	4	8.4	49	1
16	35	9	6	2	1	75	10	1	213	6	2	759.5	49	16
16	35	9	6	2	1	75	10	1	214	6	9	10.4	49	1
16	35	9	6	2	1	75	10	1	215	16	5	11.28	49	1
16	35	9	6	2	1	75	10	1	216	6	3	562.33	49	12
16	35	9	6	2	1	75	10	1	217	6	6	0	-1	16
16	35	9	6	2	1	75	10	1	218	6	8	391.09	49	8
16	35	9	6	2	1	75	10	1	219	6	6	459.78	49	10
16	35	9	6	2	1	75	10	1	220	6	4	607.47	49	13
16	35	9	6	2	1	75	10	1	221	16	9	0	-1	16
16	35	9	6	2	1	75	10	1	222	6	9	710.83	49	15
16	35	9	6	2	1	75	10	1	223	6	10	8.1	49	1
16	35	9	6	2	1	75	10	1	224	6	1	344.13	49	7
16	35	9	6	2	1	75	10	1	225	16	3	610.95	49	13
16	35	9	6	2	1	75	10	1	226	6	2	0	-1	16
16	35	9	6	2	1	75	10	1	227	6	7	618.83	49	13
16	35	9	6	2	1	75	10	1	228	6	5	720.66	49	15
16	35	9	6	2	1	75	10	1	229	6	8	10.9	49	1
16	35	9	6	2	1	75	10	1	230	6	3	26.74	49	1
16	35	9	6	2	1	75	10	1	230	6	3	759.09	49	16
16	35	9	6	2	1	75	10	1	231	6	6	9.12	49	1
16	35	9	6	2	1	75	10	1	231	6	6	770.95	49	16
16	35	9	6	2	1	75	10	1	232	16	6	10.56	49	1
16	35	9	6	2	1	75	10	1	233	16	7	685.5	49	14
16	35	9	6	2	1	75	10	1	234	6	5	8.1	49	1
16	35	9	6	2	1	75	10	1	235	6	7	665.69	49	14
16	35	9	6	2	1	75	10	1	236	16	8	8.12	49	1
16	35	9	6	2	1	75	10	1	237	6	1	94.59	49	2
16	35	9	6	2	1	75	10	1	238	6	2	689.3	49	14
16	35	9	6	2	1	75	10	1	239	6	8	10.42	49	1
16	35	9	6	2	1	75	10	1	240	6	4	279.28	49	6
16	35	9	6	2	1	75	10	1	241	6	9	613.41	49	13
16	35	9	6	2	1	75	10	1	242	6	10	571.56	49	12
16	35	9	6	2	1	75	10	1	243	6	3	608.39	49	13
16	35	9	6	2	1	75	10	1	244	16	5	0	-1	16
16	35	9	6	2	1	75	10	1	245	6	7	709.25	49	15
16	35	9	6	2	1	75	10	1	246	6	10	9.87	49	1
16	35	9	6	2	1	75	10	1	246	6	10	665.47	49	14
16	35	9	6	2	1	75	10	1	247	6	4	7.74	49	1
16	35	9	6	2	1	75	10	1	247	6	4	767.03	49	16
16	35	9	6	2	1	75	10	1	248	6	2	8.18	49	1
16	35	9	6	2	1	75	10	1	249	6	5	67.11	49	2
16	35	9	6	2	1	75	10	1	250	16	2	58.14	49	2
16	35	9	6	2	1	75	10	1	251	16	1	491.41	49	10
16	35	9	6	2	1	75	10	1	252	6	1	777.5	49	16
16	35	9	6	2	1	75	10	1	253	16	4	9.91	49	1
16	35	9	6	2	1	75	10	1	254	6	9	618.95	49	13
16	35	9	6	2	1	75	10	1	255	6	6	0	-1	16
16	35	9	6	2	1	75	10	1	256	6	3	15.94	49	1
16	35	9	6	2	1	75	10	1	257	6	8	211.49	49	5
16	35	9	6	2	1	75	10	1	258	6	6	277.48	49	6
16	35	9	6	2	1	75	10	1	259	6	2	418.63	49	9
16	35	9	6	2	1	75	10	1	260	6	7	586	49	12
16	35	9	6	2	1	75	10	1	261	16	9	0	-1	16
16	35	9	6	2	1	75	10	1	262	6	8	663.23	49	14
16	35	9	6	2	1	75	10	1	263	6	5	13.23	49	1
16	35	9	6	2	1	75	10	1	264	6	9	136.69	49	3
16	35	9	6	2	1	75	10	1	265	16	10	262.58	49	6
16	35	9	6	2	1	75	10	1	265	16	10	509.99	49	11
16	35	9	6	2	1	75	10	1	266	6	1	560.32	49	12
16	35	9	6	2	1	75	10	1	267	6	4	0	-1	16
16	35	9	6	2	1	75	10	1	268	6	10	119.02	49	3
16	35	9	6	2	1	75	10	1	269	16	3	181.1	49	4
16	35	9	6	2	1	75	10	1	270	6	3	486.69	49	10
16	35	9	6	2	1	75	10	1	271	16	7	0	-1	16
16	35	9	6	2	1	75	10	1	272	6	6	57.53	49	2
16	35	9	6	2	1	75	10	1	273	16	1	0	-1	16
16	35	9	6	2	1	75	10	1	274	6	8	94	49	2
16	35	9	6	2	1	75	10	1	275	6	4	121.01	49	3
16	35	9	6	2	1	75	10	1	276	16	10	27.49	49	1
16	35	9	6	2	1	75	10	1	277	6	10	110.85	49	3
16	35	9	6	2	1	75	10	1	278	6	2	692.32	49	14
16	35	9	6	2	1	75	10	1	279	6	9	12.81	49	1
16	35	9	6	2	1	75	10	1	279	6	9	740.75	49	15
16	35	9	6	2	1	75	10	1	280	6	1	9.21	49	1
16	35	9	6	2	1	75	10	1	281	6	5	134.84	49	3
16	35	9	6	2	1	75	10	1	282	6	7	209.26	49	5
16	35	9	6	2	1	75	10	1	283	6	3	496.42	49	10
16	35	9	6	2	1	75	10	1	283	6	3	707.85	49	15
16	35	9	6	2	1	75	10	1	284	6	2	557.43	49	12
16	35	9	6	2	1	75	10	1	284	6	2	760.26	49	16
16	35	9	6	2	1	75	10	1	285	6	10	8.61	49	1
16	35	9	6	2	1	75	10	1	286	6	9	64.03	49	2
16	35	9	6	2	1	75	10	1	287	6	8	237.11	49	5
16	35	9	6	2	1	75	10	1	288	16	9	409.8	49	9
16	35	9	6	2	1	75	10	1	289	6	5	630.12	49	13
16	35	9	6	2	1	75	10	1	290	6	1	10.16	49	1
16	35	9	6	2	1	75	10	1	290	6	1	760.72	49	16
16	35	9	6	2	1	75	10	1	291	6	7	10.37	49	1
16	35	9	6	2	1	75	10	1	292	16	2	212.27	49	5
16	35	9	6	2	1	75	10	1	293	6	3	425.6	49	9
16	35	9	6	2	1	75	10	1	294	6	6	660.04	49	14
16	35	9	6	2	1	75	10	1	295	6	4	7.99	49	1
16	35	9	6	2	1	75	10	1	295	6	4	757.57	49	16
16	35	9	6	2	1	75	10	1	296	16	5	8.2	49	1
16	35	9	6	2	1	75	10	1	297	16	4	80.82	49	2
16	35	9	6	2	1	75	10	1	298	6	2	675.22	49	14
16	35	9	6	2	1	75	10	1	299	6	9	8.41	49	1
16	35	9	6	2	1	75	10	1	299	6	9	679.84	49	14
16	35	9	6	2	1	75	10	1	300	6	10	9.24	49	1
16	35	9	6	2	1	75	10	1	300	6	10	788.98	49	16
16	35	9	6	2	1	75	10	1	301	16	6	10.88	49	1
16	35	9	6	2	1	75	10	1	302	6	1	636.03	49	13
16	35	9	6	2	1	75	10	1	303	6	8	0	-1	16
16	35	9	6	2	1	75	10	1	304	16	3	174.77	49	4
16	35	9	6	2	1	75	10	1	305	6	6	662.84	49	14
16	35	9	6	2	1	75	10	1	306	16	8	7.96	49	1
16	35	9	6	2	1	75	10	1	307	6	7	675.92	49	14
16	35	9	6	2	1	75	10	1	308	6	3	7.59	49	1
16	35	9	6	2	1	75	10	1	308	6	3	657.6	49	14
16	35	9	6	2	1	75	10	1	309	16	7	7.83	49	1
16	35	9	6	2	1	75	10	1	310	16	1	0	-1	16
16	35	9	6	2	1	75	10	1	311	6	5	611.65	49	13
16	35	9	6	2	1	75	10	1	312	6	4	793.55	49	16
16	35	9	6	2	1	75	10	1	313	6	7	10.56	49	1
16	35	9	6	2	1	75	10	1	314	16	9	61.91	49	2
16	35	9	6	2	1	75	10	1	314	16	9	309.98	49	7
16	35	9	6	2	1	75	10	1	315	6	9	566.84	49	12
16	35	9	6	2	1	75	10	1	316	16	4	0	-1	16
16	35	9	6	2	1	75	10	1	317	6	2	713.7	49	15
16	35	9	6	2	1	75	10	1	318	6	4	11.01	49	1
16	35	9	6	2	1	75	10	1	318	6	4	607.8	49	13
16	35	9	6	2	1	75	10	1	319	16	5	0	-1	16
16	35	9	6	2	1	75	10	1	320	6	5	565.2	49	12
16	35	9	6	2	1	75	10	1	321	6	1	0	-1	16
16	35	9	6	2	1	75	10	1	322	6	10	131.45	49	3
16	35	9	6	2	1	75	10	1	322	6	10	663.84	49	14
16	35	9	6	2	1	75	10	1	323	16	10	8.85	49	1
16	35	9	6	2	1	75	10	1	324	16	2	35.25	49	1
16	35	9	6	2	1	75	10	1	324	16	2	257.45	49	6
16	35	9	6	2	1	75	10	1	325	6	6	719.44	49	15
16	35	9	6	2	1	75	10	1	326	6	3	10.9	49	1
16	35	9	6	2	1	75	10	1	326	6	3	727.49	49	15
16	35	9	6	2	1	75	10	1	327	6	8	10.88	49	1
16	35	9	6	2	1	75	10	1	327	6	8	732.3	49	15
16	35	9	6	2	1	75	10	1	328	6	5	13.21	49	1
16	35	9	6	2	1	75	10	1	328	6	5	690.89	49	14
16	35	9	6	2	1	75	10	1	329	6	10	8.93	49	1
16	35	9	6	2	1	75	10	1	330	6	4	325.45	49	7
16	35	9	6	2	1	75	10	1	331	6	9	715.85	49	15
16	35	9	6	2	1	75	10	1	332	6	2	7.98	49	1
16	35	9	6	2	1	75	10	1	333	6	8	88.14	49	2
16	35	9	6	2	1	75	10	1	333	6	8	723.56	49	15
16	35	9	6	2	1	75	10	1	334	6	7	7.83	49	1
16	35	9	6	2	1	75	10	1	334	6	7	710.19	49	15
16	35	9	6	2	1	75	10	1	335	6	3	34.75	49	1
16	35	9	6	2	1	75	10	1	335	6	3	736.26	49	15
16	35	9	6	2	1	75	10	1	336	6	6	9.82	49	1
16	35	9	6	2	1	75	10	1	337	6	1	80.08	49	2
16	35	9	6	2	1	75	10	1	338	6	7	109.7	49	3
16	35	9	6	2	1	75	10	1	339	6	9	139.44	49	3
16	35	9	6	2	1	75	10	1	340	6	4	292.02	49	6
16	35	9	6	2	1	75	10	1	341	6	10	0	-1	16
16	35	9	6	2	1	75	10	1	342	6	5	292.93	49	6
16	35	9	6	2	1	75	10	1	343	16	6	0	-1	16
16	35	9	6	2	1	75	10	1	344	16	3	0	-1	16
16	35	9	6	2	1	75	10	1	345	16	8	0	-1	16
16	35	9	6	2	1	75	10	1	346	6	2	0	-1	16
16	35	9	6	2	1	75	10	1	347	16	2	77.47	49	2
16	35	9	6	2	1	75	10	1	348	6	1	481.23	49	10
16	35	9	6	2	1	75	10	1	349	6	3	624.77	49	13
16	35	9	6	2	1	75	10	1	350	6	6	760.32	49	16
16	35	9	6	2	1	75	10	1	351	6	8	13.03	49	1
16	35	9	6	2	1	75	10	1	352	6	2	362.95	49	8
16	35	9	6	2	1	75	10	1	353	6	9	686.92	49	14
16	35	9	6	2	1	75	10	1	354	6	10	9.43	49	1
16	35	9	6	2	1	75	10	1	355	6	7	114.09	49	3
16	35	9	6	2	1	75	10	1	356	16	9	295.71	49	6
16	35	9	6	2	1	75	10	1	357	6	1	608.07	49	13
16	35	9	6	2	1	75	10	1	358	6	6	793.31	49	16
16	35	9	6	2	1	75	10	1	359	6	5	9.2	49	1
16	35	9	6	2	1	75	10	1	360	6	8	64.36	49	2
16	35	9	6	2	1	75	10	1	361	6	3	523.17	49	11
16	35	9	6	2	1	75	10	1	362	6	4	0	-1	16
16	35	9	6	2	1	75	10	1	363	6	5	315.5	49	7
16	35	9	6	2	1	75	10	1	364	6	2	511.82	49	11
16	35	9	6	2	1	75	10	1	365	16	10	0	-1	16
16	35	9	6	2	1	75	10	1	366	6	10	22.34	49	1
16	35	9	6	2	1	75	10	1	367	6	9	690.9	49	14
16	35	9	6	2	1	75	10	1	368	6	4	8.25	49	1
16	35	9	6	2	1	75	10	1	369	6	3	64.33	49	2
16	35	9	6	2	1	75	10	1	370	6	8	275.94	49	6
16	35	9	6	2	1	75	10	1	371	6	7	0	-1	16
16	35	9	6	2	1	75	10	1	372	6	6	72.71	49	2
16	35	9	6	2	1	75	10	1	373	6	1	107.3	49	3
16	35	9	6	2	1	75	10	1	374	6	2	286.17	49	6
16	35	9	6	2	1	75	10	1	375	6	10	772.39	49	16
16	35	9	6	2	1	75	10	1	376	6	9	10.36	49	1
16	35	9	6	2	1	75	10	1	376	6	9	779.4	49	16
16	35	9	6	2	1	75	10	1	377	6	7	10.95	49	1
16	35	9	6	2	1	75	10	1	378	16	7	188.34	49	4
16	35	9	6	2	1	75	10	1	379	16	3	158.83	49	4
16	35	9	6	2	1	75	10	1	380	16	5	0	-1	16
16	35	9	6	2	1	75	10	1	381	6	5	660.48	49	14
16	35	9	6	2	1	75	10	1	382	16	6	7.78	49	1
16	35	9	6	2	1	75	10	1	383	6	8	7.88	49	1
16	35	9	6	2	1	75	10	1	384	6	1	585.25	49	12
16	35	9	6	2	1	75	10	1	385	6	6	635.93	49	13
16	35	9	6	2	1	75	10	1	386	6	3	672.72	49	14
16	35	9	6	2	1	75	10	1	387	16	8	11.04	49	1
16	35	9	6	2	1	75	10	1	388	6	4	687.66	49	14
16	35	9	6	2	1	75	10	1	389	6	7	10.58	49	1
16	35	9	6	2	1	75	10	1	389	6	7	779.27	49	16
16	35	9	6	2	1	75	10	1	390	6	1	13.85	49	1
16	35	9	6	2	1	75	10	1	391	6	2	64.3	49	2
16	35	9	6	2	1	75	10	1	392	6	5	170.6	49	4
16	35	9	6	2	1	75	10	1	393	16	1	0	-1	16
16	35	9	6	2	1	75	10	1	394	6	10	491.66	49	10
16	35	9	6	2	1	75	10	1	395	16	4	719.4	49	15
16	35	9	6	2	1	75	10	1	396	6	4	7.73	49	1
16	35	9	6	2	1	75	10	1	397	6	9	565.79	49	12
16	35	9	6	2	1	75	10	1	398	6	6	0	-1	16
16	35	9	6	2	1	75	10	1	399	6	3	71.49	49	2
16	35	9	6	2	1	75	10	1	400	6	8	459.93	49	10
16	35	9	6	2	1	75	10	1	401	16	5	0	-1	16
16	35	9	6	2	1	75	10	1	402	6	6	514.87	49	11
16	35	9	6	2	1	75	10	1	403	16	9	758.83	49	16
16	35	9	6	2	1	75	10	1	404	6	10	7.91	49	1
16	35	9	6	2	1	75	10	1	405	6	9	657.74	49	14
16	35	9	6	2	1	75	10	1	406	16	2	8.1	49	1
16	35	9	6	2	1	75	10	1	407	16	10	0	-1	16
16	35	9	6	2	1	75	10	1	408	6	5	634.47	49	13
16	35	9	6	2	1	75	10	1	409	16	4	7.69	49	1
16	35	9	6	2	1	75	10	1	410	16	6	0	-1	16
16	35	9	6	2	1	75	10	1	411	6	7	0	-1	16
16	35	9	6	2	1	75	10	1	412	16	7	113.31	49	3
16	35	9	6	2	1	75	10	1	413	6	4	562.44	49	12
16	35	9	6	2	1	75	10	1	414	16	8	0	-1	16
16	35	9	6	2	1	75	10	1	415	6	2	136.77	49	3
16	35	9	6	2	1	75	10	1	416	6	1	0	-1	16
16	35	9	6	2	1	75	10	1	417	6	8	30.76	49	1
16	35	9	6	2	1	75	10	1	418	6	3	266.21	49	6
16	35	9	6	2	1	75	10	1	419	6	2	636.23	49	13
16	35	9	6	2	1	75	10	1	420	6	10	8.2	49	1
16	35	9	6	2	1	75	10	1	421	16	3	408.66	49	9
16	35	9	6	2	1	75	10	1	422	6	9	625.37	49	13
16	35	9	6	2	1	75	10	1	423	16	1	10.17	49	1
16	35	9	6	2	1	75	10	1	424	6	7	0	-1	16
16	35	9	6	2	1	75	10	1	425	6	6	194.06	49	4
16	35	9	6	2	1	75	10	1	426	16	6	509.7	49	11
16	35	9	6	2	1	75	10	1	427	6	5	759.05	49	16
16	35	9	6	2	1	75	10	1	428	16	7	9.78	49	1
16	35	9	6	2	1	75	10	1	429	6	8	643.41	49	13
16	35	9	6	2	1	75	10	1	430	6	1	0	-1	16
16	35	9	6	2	1	75	10	1	431	16	1	81.44	49	2
16	35	9	6	2	1	75	10	1	432	6	3	25.39	49	1
16	35	9	6	2	1	75	10	1	433	6	4	95.59	49	2
16	35	9	6	2	1	75	10	1	434	6	6	357.55	49	8
16	35	9	6	2	1	75	10	1	435	6	1	483.75	49	10
16	35	9	6	2	1	75	10	1	436	6	4	686.62	49	14
16	35	9	6	2	1	75	10	1	437	6	10	12.04	49	1
16	35	9	6	2	1	75	10	1	437	6	10	780.32	49	16
16	35	9	6	2	1	75	10	1	438	6	5	10.7	49	1
16	35	9	6	2	1	75	10	1	439	16	10	160.33	49	4
16	35	9	6	2	1	75	10	1	440	6	7	709.09	49	15
16	35	9	6	2	1	75	10	1	441	6	2	8.54	49	1
16	35	9	6	2	1	75	10	1	442	6	9	257.54	49	6
16	35	9	6	2	1	75	10	1	443	6	8	425.36	49	9
16	35	9	6	2	1	75	10	1	444	6	3	608.96	49	13
16	35	9	6	2	1	75	10	1	445	6	5	679.56	49	14
16	35	9	6	2	1	75	10	1	446	6	4	8.37	49	1
16	35	9	6	2	1	75	10	1	446	6	4	757.16	49	16
16	35	9	6	2	1	75	10	1	447	6	9	8.91	49	1
16	35	9	6	2	1	75	10	1	448	6	2	12.64	49	1
16	35	9	6	2	1	75	10	1	449	6	10	89.1	49	2
16	35	9	6	2	1	75	10	1	450	6	8	260.12	49	6
16	35	9	6	2	1	75	10	1	450	6	8	460.9	49	10
