SubjectNum	Age	Gender	PressedTask	Block Type	Block Repeat Num	Response Rate	Onset	Block	Trial	ImgType	ImgNum	RT	PressedC	FrameC
11	28	9	6	3	1	75	10	1	1	6	5	640.84	49	12
11	28	9	6	3	1	75	10	1	2	6	10	22.18	49	1
11	28	9	6	3	1	75	10	1	3	6	4	24.07	49	1
11	28	9	6	3	1	75	10	1	3	6	4	258.35	49	6
11	28	9	6	3	1	75	10	1	3	6	4	739.58	49	15
11	28	9	6	3	1	75	10	1	4	6	9	8.2	49	1
11	28	9	6	3	1	75	10	1	4	6	9	209.25	49	5
11	28	9	6	3	1	75	10	1	4	6	9	758.8	49	16
11	28	9	6	3	1	75	10	1	5	16	7	8.99	49	1
11	28	9	6	3	1	75	10	1	5	16	7	209.8	49	5
11	28	9	6	3	1	75	10	1	6	6	2	0	-1	16
11	28	9	6	3	1	75	10	1	7	6	3	13.78	49	1
11	28	9	6	3	1	75	10	1	7	6	3	259.89	49	6
11	28	9	6	3	1	75	10	1	7	6	3	713.56	49	15
11	28	9	6	3	1	75	10	1	8	16	9	10.55	49	1
11	28	9	6	3	1	75	10	1	9	6	8	587.75	49	12
11	28	9	6	3	1	75	10	1	10	16	2	9.3	49	1
11	28	9	6	3	1	75	10	1	11	6	7	684.34	49	14
11	28	9	6	3	1	75	10	1	12	6	6	8.65	49	1
11	28	9	6	3	1	75	10	1	13	6	1	88.87	49	2
11	28	9	6	3	1	75	10	1	13	6	1	307.4	49	7
11	28	9	6	3	1	75	10	1	13	6	1	761.64	49	16
11	28	9	6	3	1	75	10	1	14	16	5	8.53	49	1
11	28	9	6	3	1	75	10	1	15	6	5	531.5	49	11
11	28	9	6	3	1	75	10	1	15	6	5	757.62	49	16
11	28	9	6	3	1	75	10	1	16	6	2	577.25	49	12
11	28	9	6	3	1	75	10	1	17	6	4	10.37	49	1
11	28	9	6	3	1	75	10	1	17	6	4	688.43	49	14
11	28	9	6	3	1	75	10	1	18	6	9	10.37	49	1
11	28	9	6	3	1	75	10	1	18	6	9	778.63	49	16
11	28	9	6	3	1	75	10	1	19	6	10	12.06	49	1
11	28	9	6	3	1	75	10	1	19	6	10	732.96	49	15
11	28	9	6	3	1	75	10	1	20	16	1	10.56	49	1
11	28	9	6	3	1	75	10	1	21	6	3	577.65	49	12
11	28	9	6	3	1	75	10	1	22	16	10	10.26	49	1
11	28	9	6	3	1	75	10	1	22	16	10	709.85	49	15
11	28	9	6	3	1	75	10	1	23	6	7	9.15	49	1
11	28	9	6	3	1	75	10	1	24	16	4	8.19	49	1
11	28	9	6	3	1	75	10	1	25	6	8	729.28	49	15
11	28	9	6	3	1	75	10	1	26	16	3	7.6	49	1
11	28	9	6	3	1	75	10	1	27	6	6	658.26	49	14
11	28	9	6	3	1	75	10	1	28	6	1	8.31	49	1
11	28	9	6	3	1	75	10	1	28	6	1	727.29	49	15
11	28	9	6	3	1	75	10	1	29	6	6	10.48	49	1
11	28	9	6	3	1	75	10	1	29	6	6	762.9	49	16
11	28	9	6	3	1	75	10	1	30	6	1	10.88	49	1
11	28	9	6	3	1	75	10	1	31	16	6	21.79	49	1
11	28	9	6	3	1	75	10	1	32	6	9	614.76	49	13
11	28	9	6	3	1	75	10	1	33	6	8	10.3	49	1
11	28	9	6	3	1	75	10	1	33	6	8	660.8	49	14
11	28	9	6	3	1	75	10	1	34	6	10	8.12	49	1
11	28	9	6	3	1	75	10	1	34	6	10	733.75	49	15
11	28	9	6	3	1	75	10	1	35	16	8	8.84	49	1
11	28	9	6	3	1	75	10	1	36	6	7	643.14	49	13
11	28	9	6	3	1	75	10	1	37	6	4	8.86	49	1
11	28	9	6	3	1	75	10	1	37	6	4	757.39	49	16
11	28	9	6	3	1	75	10	1	38	6	2	8.41	49	1
11	28	9	6	3	1	75	10	1	38	6	2	209.35	49	5
11	28	9	6	3	1	75	10	1	38	6	2	767.13	49	16
11	28	9	6	3	1	75	10	1	39	6	5	10.73	49	1
11	28	9	6	3	1	75	10	1	39	6	5	779.57	49	16
11	28	9	6	3	1	75	10	1	40	16	7	8.44	49	1
11	28	9	6	3	1	75	10	1	41	16	4	727.93	49	15
11	28	9	6	3	1	75	10	1	42	6	3	10.27	49	1
11	28	9	6	3	1	75	10	1	42	6	3	260.77	49	6
11	28	9	6	3	1	75	10	1	42	6	3	460.83	49	10
11	28	9	6	3	1	75	10	1	43	6	7	64.05	49	2
11	28	9	6	3	1	75	10	1	43	6	7	310.74	49	7
11	28	9	6	3	1	75	10	1	43	6	7	779.34	49	16
11	28	9	6	3	1	75	10	1	44	6	5	10.49	49	1
11	28	9	6	3	1	75	10	1	44	6	5	263.43	49	6
11	28	9	6	3	1	75	10	1	44	6	5	773.99	49	16
11	28	9	6	3	1	75	10	1	45	6	2	9.59	49	1
11	28	9	6	3	1	75	10	1	45	6	2	211.44	49	5
11	28	9	6	3	1	75	10	1	45	6	2	759.43	49	16
11	28	9	6	3	1	75	10	1	46	6	1	8.45	49	1
11	28	9	6	3	1	75	10	1	47	6	9	8.49	49	1
11	28	9	6	3	1	75	10	1	47	6	9	209.08	49	5
11	28	9	6	3	1	75	10	1	47	6	9	784.39	49	16
11	28	9	6	3	1	75	10	1	48	6	4	8.72	49	1
11	28	9	6	3	1	75	10	1	48	6	4	257.58	49	6
11	28	9	6	3	1	75	10	1	48	6	4	792.11	49	16
11	28	9	6	3	1	75	10	1	49	16	5	8.9	49	1
11	28	9	6	3	1	75	10	1	49	16	5	210.14	49	5
11	28	9	6	3	1	75	10	1	50	16	1	0	-1	16
11	28	9	6	3	1	75	10	1	51	6	10	0	-1	16
11	28	9	6	3	1	75	10	1	52	6	6	78.63	49	2
11	28	9	6	3	1	75	10	1	52	6	6	718.58	49	15
11	28	9	6	3	1	75	10	1	53	6	3	10.95	49	1
11	28	9	6	3	1	75	10	1	54	6	8	110.44	49	3
11	28	9	6	3	1	75	10	1	54	6	8	311.33	49	7
11	28	9	6	3	1	75	10	1	55	16	2	63.96	49	2
11	28	9	6	3	1	75	10	1	56	6	2	763.51	49	16
11	28	9	6	3	1	75	10	1	57	6	10	9.48	49	1
11	28	9	6	3	1	75	10	1	57	6	10	758.55	49	16
11	28	9	6	3	1	75	10	1	58	6	9	8.56	49	1
11	28	9	6	3	1	75	10	1	58	6	9	685.08	49	14
11	28	9	6	3	1	75	10	1	59	16	10	8.73	49	1
11	28	9	6	3	1	75	10	1	59	16	10	770.82	49	16
11	28	9	6	3	1	75	10	1	60	6	1	8.67	49	1
11	28	9	6	3	1	75	10	1	61	6	8	110.56	49	3
11	28	9	6	3	1	75	10	1	61	6	8	310.59	49	7
11	28	9	6	3	1	75	10	1	61	6	8	766.31	49	16
11	28	9	6	3	1	75	10	1	62	6	3	8.35	49	1
11	28	9	6	3	1	75	10	1	62	6	3	210.47	49	5
11	28	9	6	3	1	75	10	1	62	6	3	666.7	49	14
11	28	9	6	3	1	75	10	1	63	6	6	8.3	49	1
11	28	9	6	3	1	75	10	1	63	6	6	660.93	49	14
11	28	9	6	3	1	75	10	1	64	6	5	12.84	49	1
11	28	9	6	3	1	75	10	1	64	6	5	617.21	49	13
11	28	9	6	3	1	75	10	1	65	6	7	12.58	49	1
11	28	9	6	3	1	75	10	1	65	6	7	677.94	49	14
11	28	9	6	3	1	75	10	1	66	6	4	10.93	49	1
11	28	9	6	3	1	75	10	1	66	6	4	714.56	49	15
11	28	9	6	3	1	75	10	1	67	6	7	11.16	49	1
11	28	9	6	3	1	75	10	1	67	6	7	789.13	49	16
11	28	9	6	3	1	75	10	1	68	6	4	10.43	49	1
11	28	9	6	3	1	75	10	1	68	6	4	210.56	49	5
11	28	9	6	3	1	75	10	1	69	6	10	58.61	49	2
11	28	9	6	3	1	75	10	1	69	6	10	308.54	49	7
11	28	9	6	3	1	75	10	1	70	6	2	8.17	49	1
11	28	9	6	3	1	75	10	1	70	6	2	210.66	49	5
11	28	9	6	3	1	75	10	1	71	6	1	72.9	49	2
11	28	9	6	3	1	75	10	1	71	6	1	307.28	49	7
11	28	9	6	3	1	75	10	1	71	6	1	744.42	49	15
11	28	9	6	3	1	75	10	1	72	6	9	7.99	49	1
11	28	9	6	3	1	75	10	1	73	6	5	8.83	49	1
11	28	9	6	3	1	75	10	1	73	6	5	209.02	49	5
11	28	9	6	3	1	75	10	1	73	6	5	782.49	49	16
11	28	9	6	3	1	75	10	1	74	6	6	9.07	49	1
11	28	9	6	3	1	75	10	1	74	6	6	721.71	49	15
11	28	9	6	3	1	75	10	1	75	6	3	11.31	49	1
11	28	9	6	3	1	75	10	1	75	6	3	763.54	49	16
11	28	9	6	3	1	75	10	1	76	6	8	12.97	49	1
11	28	9	6	3	1	75	10	1	76	6	8	268.56	49	6
11	28	9	6	3	1	75	10	1	77	6	5	218.48	49	5
11	28	9	6	3	1	75	10	1	77	6	5	418.95	49	9
11	28	9	6	3	1	75	10	1	78	16	9	112.85	49	3
11	28	9	6	3	1	75	10	1	79	16	6	0	-1	16
11	28	9	6	3	1	75	10	1	80	16	3	0	-1	16
11	28	9	6	3	1	75	10	1	81	16	8	0	-1	16
11	28	9	6	3	1	75	10	1	82	6	4	609.76	49	13
11	28	9	6	3	1	75	10	1	83	16	7	10.9	49	1
11	28	9	6	3	1	75	10	1	84	6	10	0	-1	16
11	28	9	6	3	1	75	10	1	85	6	2	16.7	49	1
11	28	9	6	3	1	75	10	1	86	6	9	40.56	49	1
11	28	9	6	3	1	75	10	1	86	6	9	259.49	49	6
11	28	9	6	3	1	75	10	1	87	6	7	10.78	49	1
11	28	9	6	3	1	75	10	1	87	6	7	259.22	49	6
11	28	9	6	3	1	75	10	1	88	6	8	210.34	49	5
11	28	9	6	3	1	75	10	1	89	6	6	113.45	49	3
11	28	9	6	3	1	75	10	1	89	6	6	362.4	49	8
11	28	9	6	3	1	75	10	1	90	6	3	70.49	49	2
11	28	9	6	3	1	75	10	1	90	6	3	327.69	49	7
11	28	9	6	3	1	75	10	1	91	6	1	129.42	49	3
11	28	9	6	3	1	75	10	1	91	6	1	360.31	49	8
11	28	9	6	3	1	75	10	1	91	6	1	789.58	49	16
11	28	9	6	3	1	75	10	1	92	6	7	9.51	49	1
11	28	9	6	3	1	75	10	1	93	16	9	127.49	49	3
11	28	9	6	3	1	75	10	1	93	16	9	357.68	49	8
11	28	9	6	3	1	75	10	1	94	6	5	716.99	49	15
11	28	9	6	3	1	75	10	1	95	6	2	8.39	49	1
11	28	9	6	3	1	75	10	1	96	6	1	8.56	49	1
11	28	9	6	3	1	75	10	1	96	6	1	259.17	49	6
11	28	9	6	3	1	75	10	1	96	6	1	761.56	49	16
11	28	9	6	3	1	75	10	1	97	6	9	11.15	49	1
11	28	9	6	3	1	75	10	1	97	6	9	771.03	49	16
11	28	9	6	3	1	75	10	1	98	16	2	8.02	49	1
11	28	9	6	3	1	75	10	1	99	6	4	667.52	49	14
11	28	9	6	3	1	75	10	1	100	16	4	8.18	49	1
11	28	9	6	3	1	75	10	1	100	16	4	777.56	49	16
11	28	9	6	3	1	75	10	1	101	6	10	12.91	49	1
11	28	9	6	3	1	75	10	1	101	6	10	261.29	49	6
11	28	9	6	3	1	75	10	1	101	6	10	667.04	49	14
11	28	9	6	3	1	75	10	1	102	6	3	12.92	49	1
11	28	9	6	3	1	75	10	1	102	6	3	760.06	49	16
11	28	9	6	3	1	75	10	1	103	6	6	11.02	49	1
11	28	9	6	3	1	75	10	1	103	6	6	262.18	49	6
11	28	9	6	3	1	75	10	1	103	6	6	739.24	49	15
11	28	9	6	3	1	75	10	1	104	6	8	10.82	49	1
11	28	9	6	3	1	75	10	1	104	6	8	759.38	49	16
11	28	9	6	3	1	75	10	1	105	6	5	9.05	49	1
11	28	9	6	3	1	75	10	1	105	6	5	260.34	49	6
11	28	9	6	3	1	75	10	1	106	6	9	13.31	49	1
11	28	9	6	3	1	75	10	1	106	6	9	257.69	49	6
11	28	9	6	3	1	75	10	1	107	16	10	36.48	49	1
11	28	9	6	3	1	75	10	1	107	16	10	259.88	49	6
11	28	9	6	3	1	75	10	1	108	6	4	175.74	49	4
11	28	9	6	3	1	75	10	1	108	6	4	407.8	49	9
11	28	9	6	3	1	75	10	1	109	16	1	169.33	49	4
11	28	9	6	3	1	75	10	1	109	16	1	409.46	49	9
11	28	9	6	3	1	75	10	1	110	6	2	166.58	49	4
11	28	9	6	3	1	75	10	1	110	6	2	409.12	49	9
11	28	9	6	3	1	75	10	1	111	6	10	215.05	49	5
11	28	9	6	3	1	75	10	1	111	6	10	457.7	49	10
11	28	9	6	3	1	75	10	1	112	6	6	214.25	49	5
11	28	9	6	3	1	75	10	1	112	6	6	459.22	49	10
11	28	9	6	3	1	75	10	1	113	16	5	119.27	49	3
11	28	9	6	3	1	75	10	1	113	16	5	359.77	49	8
11	28	9	6	3	1	75	10	1	114	6	3	630.43	49	13
11	28	9	6	3	1	75	10	1	115	6	7	12.99	49	1
11	28	9	6	3	1	75	10	1	115	6	7	736.67	49	15
11	28	9	6	3	1	75	10	1	116	16	3	10.88	49	1
11	28	9	6	3	1	75	10	1	117	16	6	0	-1	16
11	28	9	6	3	1	75	10	1	118	16	8	0	-1	16
11	28	9	6	3	1	75	10	1	119	6	8	757.49	49	16
11	28	9	6	3	1	75	10	1	120	6	1	7.77	49	1
11	28	9	6	3	1	75	10	1	120	6	1	769.25	49	16
11	28	9	6	3	1	75	10	1	121	16	5	7.99	49	1
11	28	9	6	3	1	75	10	1	121	16	5	257.49	49	6
11	28	9	6	3	1	75	10	1	122	6	5	119.98	49	3
11	28	9	6	3	1	75	10	1	123	6	2	160.07	49	4
11	28	9	6	3	1	75	10	1	123	6	2	409.56	49	9
11	28	9	6	3	1	75	10	1	124	16	4	27.55	49	1
11	28	9	6	3	1	75	10	1	124	16	4	259.4	49	6
11	28	9	6	3	1	75	10	1	125	16	9	0	-1	16
11	28	9	6	3	1	75	10	1	126	16	10	0	-1	16
11	28	9	6	3	1	75	10	1	127	6	10	760.25	49	16
11	28	9	6	3	1	75	10	1	128	16	2	10.8	49	1
11	28	9	6	3	1	75	10	1	129	16	6	13.4	49	1
11	28	9	6	3	1	75	10	1	129	16	6	262.93	49	6
11	28	9	6	3	1	75	10	1	130	16	8	0	-1	16
11	28	9	6	3	1	75	10	1	131	16	7	0	-1	16
11	28	9	6	3	1	75	10	1	132	6	9	759.4	49	16
11	28	9	6	3	1	75	10	1	133	6	4	8.49	49	1
11	28	9	6	3	1	75	10	1	133	6	4	259.73	49	6
11	28	9	6	3	1	75	10	1	133	6	4	660.25	49	14
11	28	9	6	3	1	75	10	1	134	6	8	8.41	49	1
11	28	9	6	3	1	75	10	1	134	6	8	658.54	49	14
11	28	9	6	3	1	75	10	1	135	6	7	8.14	49	1
11	28	9	6	3	1	75	10	1	136	6	3	60.82	49	2
11	28	9	6	3	1	75	10	1	136	6	3	307.35	49	7
11	28	9	6	3	1	75	10	1	136	6	3	789.02	49	16
11	28	9	6	3	1	75	10	1	137	6	6	9.36	49	1
11	28	9	6	3	1	75	10	1	137	6	6	210.71	49	5
11	28	9	6	3	1	75	10	1	138	6	1	16.37	49	1
11	28	9	6	3	1	75	10	1	138	6	1	258.98	49	6
11	28	9	6	3	1	75	10	1	139	16	3	75.56	49	2
11	28	9	6	3	1	75	10	1	139	16	3	311.45	49	7
11	28	9	6	3	1	75	10	1	140	16	1	0	-1	16
11	28	9	6	3	1	75	10	1	141	16	6	0	-1	16
11	28	9	6	3	1	75	10	1	142	6	7	0	-1	16
11	28	9	6	3	1	75	10	1	143	6	2	15.02	49	1
11	28	9	6	3	1	75	10	1	143	6	2	260.29	49	6
11	28	9	6	3	1	75	10	1	143	6	2	760.29	49	16
11	28	9	6	3	1	75	10	1	144	16	10	8.97	49	1
11	28	9	6	3	1	75	10	1	144	16	10	257.71	49	6
11	28	9	6	3	1	75	10	1	145	6	10	694.96	49	14
11	28	9	6	3	1	75	10	1	146	6	4	8.08	49	1
11	28	9	6	3	1	75	10	1	147	6	5	7.75	49	1
11	28	9	6	3	1	75	10	1	147	6	5	209.5	49	5
11	28	9	6	3	1	75	10	1	148	6	1	57.39	49	2
11	28	9	6	3	1	75	10	1	148	6	1	258.31	49	6
11	28	9	6	3	1	75	10	1	149	6	9	28.51	49	1
11	28	9	6	3	1	75	10	1	149	6	9	257.15	49	6
11	28	9	6	3	1	75	10	1	150	6	6	11.1	49	1
11	28	9	6	3	1	75	10	1	150	6	6	211.17	49	5
11	28	9	6	3	1	75	10	1	150	6	6	411.17	49	9
11	28	9	6	3	1	75	10	1	151	6	3	42.92	49	1
11	28	9	6	3	1	75	10	1	151	6	3	258.19	49	6
11	28	9	6	3	1	75	10	1	151	6	3	459.47	49	10
11	28	9	6	3	1	75	10	1	152	6	8	118	49	3
11	28	9	6	3	1	75	10	1	152	6	8	365.79	49	8
11	28	9	6	3	1	75	10	1	153	6	7	29.75	49	1
11	28	9	6	3	1	75	10	1	153	6	7	262.83	49	6
11	28	9	6	3	1	75	10	1	154	6	9	10.76	49	1
11	28	9	6	3	1	75	10	1	154	6	9	262.19	49	6
11	28	9	6	3	1	75	10	1	154	6	9	766.56	49	16
11	28	9	6	3	1	75	10	1	155	6	4	9.52	49	1
11	28	9	6	3	1	75	10	1	155	6	4	260.48	49	6
11	28	9	6	3	1	75	10	1	155	6	4	789.7	49	16
11	28	9	6	3	1	75	10	1	156	6	2	8.66	49	1
11	28	9	6	3	1	75	10	1	156	6	2	257.6	49	6
11	28	9	6	3	1	75	10	1	157	6	10	20.6	49	1
11	28	9	6	3	1	75	10	1	157	6	10	259.32	49	6
11	28	9	6	3	1	75	10	1	158	6	5	35.27	49	1
11	28	9	6	3	1	75	10	1	158	6	5	257.3	49	6
11	28	9	6	3	1	75	10	1	158	6	5	785.9	49	16
11	28	9	6	3	1	75	10	1	159	6	1	8.55	49	1
11	28	9	6	3	1	75	10	1	159	6	1	209.75	49	5
11	28	9	6	3	1	75	10	1	160	6	3	174.09	49	4
11	28	9	6	3	1	75	10	1	160	6	3	407.49	49	9
11	28	9	6	3	1	75	10	1	160	6	3	792.55	49	16
11	28	9	6	3	1	75	10	1	161	16	4	8.1	49	1
11	28	9	6	3	1	75	10	1	161	16	4	259.2	49	6
11	28	9	6	3	1	75	10	1	162	6	6	0	-1	16
11	28	9	6	3	1	75	10	1	163	16	8	32.78	49	1
11	28	9	6	3	1	75	10	1	163	16	8	259.72	49	6
11	28	9	6	3	1	75	10	1	164	6	8	0	-1	16
11	28	9	6	3	1	75	10	1	165	6	6	38.67	49	1
11	28	9	6	3	1	75	10	1	165	6	6	262.59	49	6
11	28	9	6	3	1	75	10	1	165	6	6	761.76	49	16
11	28	9	6	3	1	75	10	1	166	16	7	12.92	49	1
11	28	9	6	3	1	75	10	1	167	6	4	758.47	49	16
11	28	9	6	3	1	75	10	1	168	6	5	8.07	49	1
11	28	9	6	3	1	75	10	1	168	6	5	209.85	49	5
11	28	9	6	3	1	75	10	1	168	6	5	718.69	49	15
11	28	9	6	3	1	75	10	1	169	6	10	8.36	49	1
11	28	9	6	3	1	75	10	1	169	6	10	638.15	49	13
11	28	9	6	3	1	75	10	1	170	6	9	8.29	49	1
11	28	9	6	3	1	75	10	1	170	6	9	631.65	49	13
11	28	9	6	3	1	75	10	1	171	6	7	8.2	49	1
11	28	9	6	3	1	75	10	1	172	16	5	132.92	49	3
11	28	9	6	3	1	75	10	1	172	16	5	357.19	49	8
11	28	9	6	3	1	75	10	1	173	6	2	668.97	49	14
11	28	9	6	3	1	75	10	1	174	16	2	9.65	49	1
11	28	9	6	3	1	75	10	1	174	16	2	259.45	49	6
11	28	9	6	3	1	75	10	1	175	6	1	709.8	49	15
11	28	9	6	3	1	75	10	1	176	6	8	10.63	49	1
11	28	9	6	3	1	75	10	1	176	6	8	629.93	49	13
11	28	9	6	3	1	75	10	1	177	6	3	10.78	49	1
11	28	9	6	3	1	75	10	1	177	6	3	727.75	49	15
11	28	9	6	3	1	75	10	1	178	6	5	10.66	49	1
11	28	9	6	3	1	75	10	1	178	6	5	261.5	49	6
11	28	9	6	3	1	75	10	1	178	6	5	688.04	49	14
11	28	9	6	3	1	75	10	1	179	6	4	9.09	49	1
11	28	9	6	3	1	75	10	1	179	6	4	210.46	49	5
11	28	9	6	3	1	75	10	1	179	6	4	688.59	49	14
11	28	9	6	3	1	75	10	1	180	6	2	9.59	49	1
11	28	9	6	3	1	75	10	1	180	6	2	789.41	49	16
11	28	9	6	3	1	75	10	1	181	6	10	8.3	49	1
11	28	9	6	3	1	75	10	1	181	6	10	209.66	49	5
11	28	9	6	3	1	75	10	1	181	6	10	776.25	49	16
11	28	9	6	3	1	75	10	1	182	6	9	8.21	49	1
11	28	9	6	3	1	75	10	1	182	6	9	209.47	49	5
11	28	9	6	3	1	75	10	1	183	6	6	81.05	49	2
11	28	9	6	3	1	75	10	1	183	6	6	306.92	49	7
11	28	9	6	3	1	75	10	1	184	16	9	272.75	49	6
11	28	9	6	3	1	75	10	1	184	16	9	507.58	49	11
11	28	9	6	3	1	75	10	1	184	16	9	757.17	49	16
11	28	9	6	3	1	75	10	1	185	16	1	707.53	49	15
11	28	9	6	3	1	75	10	1	186	6	8	8.36	49	1
11	28	9	6	3	1	75	10	1	187	6	7	228.29	49	5
11	28	9	6	3	1	75	10	1	187	6	7	460.07	49	10
11	28	9	6	3	1	75	10	1	188	6	3	61.2	49	2
11	28	9	6	3	1	75	10	1	188	6	3	262.91	49	6
11	28	9	6	3	1	75	10	1	189	6	1	90.74	49	2
11	28	9	6	3	1	75	10	1	189	6	1	312.34	49	7
11	28	9	6	3	1	75	10	1	189	6	1	774.62	49	16
11	28	9	6	3	1	75	10	1	190	6	6	9.19	49	1
11	28	9	6	3	1	75	10	1	190	6	6	219.56	49	5
11	28	9	6	3	1	75	10	1	191	16	3	38.63	49	1
11	28	9	6	3	1	75	10	1	191	16	3	257.81	49	6
11	28	9	6	3	1	75	10	1	192	6	4	0	-1	16
11	28	9	6	3	1	75	10	1	193	6	1	182.83	49	4
11	28	9	6	3	1	75	10	1	193	6	1	407.14	49	9
11	28	9	6	3	1	75	10	1	194	6	2	330.6	49	7
11	28	9	6	3	1	75	10	1	194	6	2	558.28	49	12
11	28	9	6	3	1	75	10	1	195	16	6	212.25	49	5
11	28	9	6	3	1	75	10	1	195	16	6	457.34	49	10
11	28	9	6	3	1	75	10	1	196	6	5	457.62	49	10
11	28	9	6	3	1	75	10	1	196	6	5	659.21	49	14
11	28	9	6	3	1	75	10	1	197	6	9	8.18	49	1
11	28	9	6	3	1	75	10	1	197	6	9	657.78	49	14
11	28	9	6	3	1	75	10	1	198	16	8	10.41	49	1
11	28	9	6	3	1	75	10	1	198	16	8	258.73	49	6
11	28	9	6	3	1	75	10	1	199	16	10	278.31	49	6
11	28	9	6	3	1	75	10	1	199	16	10	509.7	49	11
11	28	9	6	3	1	75	10	1	199	16	10	710.48	49	15
11	28	9	6	3	1	75	10	1	200	6	10	10.99	49	1
11	28	9	6	3	1	75	10	1	200	6	10	639.4	49	13
11	28	9	6	3	1	75	10	1	201	6	7	11.13	49	1
11	28	9	6	3	1	75	10	1	201	6	7	212.18	49	5
11	28	9	6	3	1	75	10	1	202	6	8	161.48	49	4
11	28	9	6	3	1	75	10	1	202	6	8	411.4	49	9
11	28	9	6	3	1	75	10	1	203	16	2	8.55	49	1
11	28	9	6	3	1	75	10	1	203	16	2	257.64	49	6
11	28	9	6	3	1	75	10	1	203	16	2	758.93	49	16
11	28	9	6	3	1	75	10	1	204	6	3	8.43	49	1
11	28	9	6	3	1	75	10	1	204	6	3	209.38	49	5
11	28	9	6	3	1	75	10	1	204	6	3	728.65	49	15
11	28	9	6	3	1	75	10	1	205	16	7	7.97	49	1
11	28	9	6	3	1	75	10	1	206	6	7	0	-1	16
11	28	9	6	3	1	75	10	1	207	6	1	7.9	49	1
11	28	9	6	3	1	75	10	1	207	6	1	210.17	49	5
11	28	9	6	3	1	75	10	1	207	6	1	787.03	49	16
11	28	9	6	3	1	75	10	1	208	6	5	7.8	49	1
11	28	9	6	3	1	75	10	1	208	6	5	209.54	49	5
11	28	9	6	3	1	75	10	1	208	6	5	760.81	49	16
11	28	9	6	3	1	75	10	1	209	16	1	8.58	49	1
11	28	9	6	3	1	75	10	1	210	6	10	0	-1	16
11	28	9	6	3	1	75	10	1	211	6	4	91.83	49	2
11	28	9	6	3	1	75	10	1	211	6	4	309.67	49	7
11	28	9	6	3	1	75	10	1	212	16	4	61.74	49	2
11	28	9	6	3	1	75	10	1	212	16	4	312.21	49	7
11	28	9	6	3	1	75	10	1	213	6	2	11.32	49	1
11	28	9	6	3	1	75	10	1	213	6	2	260	49	6
11	28	9	6	3	1	75	10	1	213	6	2	791.71	49	16
11	28	9	6	3	1	75	10	1	214	6	9	9.97	49	1
11	28	9	6	3	1	75	10	1	214	6	9	260.49	49	6
11	28	9	6	3	1	75	10	1	215	16	5	22.79	49	1
11	28	9	6	3	1	75	10	1	215	16	5	258.34	49	6
11	28	9	6	3	1	75	10	1	215	16	5	772.31	49	16
11	28	9	6	3	1	75	10	1	216	6	3	8.18	49	1
11	28	9	6	3	1	75	10	1	216	6	3	210.04	49	5
11	28	9	6	3	1	75	10	1	217	6	6	190.26	49	4
11	28	9	6	3	1	75	10	1	217	6	6	410.18	49	9
11	28	9	6	3	1	75	10	1	218	6	8	57.7	49	2
11	28	9	6	3	1	75	10	1	218	6	8	734.79	49	15
11	28	9	6	3	1	75	10	1	219	6	6	7.54	49	1
11	28	9	6	3	1	75	10	1	219	6	6	208.94	49	5
11	28	9	6	3	1	75	10	1	220	6	4	64.92	49	2
11	28	9	6	3	1	75	10	1	220	6	4	764.4	49	16
11	28	9	6	3	1	75	10	1	221	16	9	11.07	49	1
11	28	9	6	3	1	75	10	1	222	6	9	410.44	49	9
11	28	9	6	3	1	75	10	1	222	6	9	610.83	49	13
11	28	9	6	3	1	75	10	1	223	6	10	392.52	49	8
11	28	9	6	3	1	75	10	1	223	6	10	611.2	49	13
11	28	9	6	3	1	75	10	1	224	6	1	513	49	11
11	28	9	6	3	1	75	10	1	225	16	3	677.89	49	14
11	28	9	6	3	1	75	10	1	226	6	2	19.87	49	1
11	28	9	6	3	1	75	10	1	226	6	2	265.18	49	6
11	28	9	6	3	1	75	10	1	226	6	2	784.07	49	16
11	28	9	6	3	1	75	10	1	227	6	7	13.86	49	1
11	28	9	6	3	1	75	10	1	227	6	7	215.2	49	5
11	28	9	6	3	1	75	10	1	228	6	5	8.55	49	1
11	28	9	6	3	1	75	10	1	228	6	5	259.57	49	6
11	28	9	6	3	1	75	10	1	228	6	5	759.7	49	16
11	28	9	6	3	1	75	10	1	229	6	8	8.43	49	1
11	28	9	6	3	1	75	10	1	229	6	8	771.41	49	16
11	28	9	6	3	1	75	10	1	230	6	3	8.44	49	1
11	28	9	6	3	1	75	10	1	230	6	3	259.08	49	6
11	28	9	6	3	1	75	10	1	230	6	3	662.6	49	14
11	28	9	6	3	1	75	10	1	231	6	6	10.4	49	1
11	28	9	6	3	1	75	10	1	231	6	6	607.85	49	13
11	28	9	6	3	1	75	10	1	232	16	6	8.2	49	1
11	28	9	6	3	1	75	10	1	233	16	7	0	-1	16
11	28	9	6	3	1	75	10	1	234	6	5	544.28	49	11
11	28	9	6	3	1	75	10	1	234	6	5	758.64	49	16
11	28	9	6	3	1	75	10	1	235	6	7	10.17	49	1
11	28	9	6	3	1	75	10	1	235	6	7	741.82	49	15
11	28	9	6	3	1	75	10	1	236	16	8	9.82	49	1
11	28	9	6	3	1	75	10	1	236	16	8	760.35	49	16
11	28	9	6	3	1	75	10	1	237	6	1	10.65	49	1
11	28	9	6	3	1	75	10	1	237	6	1	774.5	49	16
11	28	9	6	3	1	75	10	1	238	6	2	9.79	49	1
11	28	9	6	3	1	75	10	1	238	6	2	210.47	49	5
11	28	9	6	3	1	75	10	1	239	6	8	288.49	49	6
11	28	9	6	3	1	75	10	1	239	6	8	508.93	49	11
11	28	9	6	3	1	75	10	1	240	6	4	295.89	49	6
11	28	9	6	3	1	75	10	1	240	6	4	510	49	11
11	28	9	6	3	1	75	10	1	241	6	9	7.86	49	1
11	28	9	6	3	1	75	10	1	241	6	9	259.54	49	6
11	28	9	6	3	1	75	10	1	242	6	10	8.38	49	1
11	28	9	6	3	1	75	10	1	242	6	10	209.33	49	5
11	28	9	6	3	1	75	10	1	242	6	10	758.36	49	16
11	28	9	6	3	1	75	10	1	243	6	3	8.2	49	1
11	28	9	6	3	1	75	10	1	243	6	3	256.97	49	6
11	28	9	6	3	1	75	10	1	244	16	5	22.68	49	1
11	28	9	6	3	1	75	10	1	244	16	5	257.4	49	6
11	28	9	6	3	1	75	10	1	245	6	7	620.05	49	13
11	28	9	6	3	1	75	10	1	246	6	10	10.69	49	1
11	28	9	6	3	1	75	10	1	246	6	10	643.52	49	13
11	28	9	6	3	1	75	10	1	247	6	4	13.45	49	1
11	28	9	6	3	1	75	10	1	247	6	4	786.71	49	16
11	28	9	6	3	1	75	10	1	248	6	2	12.84	49	1
11	28	9	6	3	1	75	10	1	248	6	2	777.81	49	16
11	28	9	6	3	1	75	10	1	249	6	5	11.64	49	1
11	28	9	6	3	1	75	10	1	249	6	5	212.49	49	5
11	28	9	6	3	1	75	10	1	249	6	5	712.46	49	15
11	28	9	6	3	1	75	10	1	250	16	2	10.17	49	1
11	28	9	6	3	1	75	10	1	251	16	1	222.44	49	5
11	28	9	6	3	1	75	10	1	251	16	1	460.13	49	10
11	28	9	6	3	1	75	10	1	252	6	1	59.67	49	2
11	28	9	6	3	1	75	10	1	252	6	1	307.4	49	7
11	28	9	6	3	1	75	10	1	253	16	4	172.95	49	4
11	28	9	6	3	1	75	10	1	254	6	9	643.19	49	13
11	28	9	6	3	1	75	10	1	255	6	6	10.62	49	1
11	28	9	6	3	1	75	10	1	255	6	6	672.13	49	14
11	28	9	6	3	1	75	10	1	256	6	3	8.14	49	1
11	28	9	6	3	1	75	10	1	256	6	3	757.52	49	16
11	28	9	6	3	1	75	10	1	257	6	8	8.7	49	1
11	28	9	6	3	1	75	10	1	257	6	8	209.44	49	5
11	28	9	6	3	1	75	10	1	258	6	6	126.34	49	3
11	28	9	6	3	1	75	10	1	258	6	6	359.47	49	8
11	28	9	6	3	1	75	10	1	258	6	6	758.45	49	16
11	28	9	6	3	1	75	10	1	259	6	2	10.98	49	1
11	28	9	6	3	1	75	10	1	259	6	2	782.09	49	16
11	28	9	6	3	1	75	10	1	260	6	7	10.86	49	1
11	28	9	6	3	1	75	10	1	260	6	7	262.1	49	6
11	28	9	6	3	1	75	10	1	260	6	7	788.19	49	16
11	28	9	6	3	1	75	10	1	261	16	9	10.88	49	1
11	28	9	6	3	1	75	10	1	261	16	9	263.54	49	6
11	28	9	6	3	1	75	10	1	262	6	8	632.89	49	13
11	28	9	6	3	1	75	10	1	263	6	5	9.14	49	1
11	28	9	6	3	1	75	10	1	263	6	5	661.54	49	14
11	28	9	6	3	1	75	10	1	264	6	9	9.13	49	1
11	28	9	6	3	1	75	10	1	264	6	9	210.68	49	5
11	28	9	6	3	1	75	10	1	264	6	9	687.32	49	14
11	28	9	6	3	1	75	10	1	265	16	10	8.37	49	1
11	28	9	6	3	1	75	10	1	265	16	10	209.9	49	5
11	28	9	6	3	1	75	10	1	266	6	1	209.5	49	5
11	28	9	6	3	1	75	10	1	266	6	1	457.39	49	10
11	28	9	6	3	1	75	10	1	267	6	4	37.92	49	1
11	28	9	6	3	1	75	10	1	267	6	4	257.49	49	6
11	28	9	6	3	1	75	10	1	267	6	4	757.78	49	16
11	28	9	6	3	1	75	10	1	268	6	10	7.72	49	1
11	28	9	6	3	1	75	10	1	268	6	10	210.26	49	5
11	28	9	6	3	1	75	10	1	268	6	10	739.02	49	15
11	28	9	6	3	1	75	10	1	269	16	3	8.59	49	1
11	28	9	6	3	1	75	10	1	269	16	3	209.92	49	5
11	28	9	6	3	1	75	10	1	270	6	3	784.59	49	16
11	28	9	6	3	1	75	10	1	271	16	7	11.35	49	1
11	28	9	6	3	1	75	10	1	271	16	7	260.23	49	6
11	28	9	6	3	1	75	10	1	272	6	6	0	-1	16
11	28	9	6	3	1	75	10	1	273	16	1	11.6	49	1
11	28	9	6	3	1	75	10	1	273	16	1	212.27	49	5
11	28	9	6	3	1	75	10	1	273	16	1	733.14	49	15
11	28	9	6	3	1	75	10	1	274	6	8	10.1	49	1
11	28	9	6	3	1	75	10	1	274	6	8	211.31	49	5
11	28	9	6	3	1	75	10	1	275	6	4	373.6	49	8
11	28	9	6	3	1	75	10	1	275	6	4	610.25	49	13
11	28	9	6	3	1	75	10	1	276	16	10	429.49	49	9
11	28	9	6	3	1	75	10	1	276	16	10	657.57	49	14
11	28	9	6	3	1	75	10	1	277	6	10	8.31	49	1
11	28	9	6	3	1	75	10	1	277	6	10	632.99	49	13
11	28	9	6	3	1	75	10	1	278	6	2	8.17	49	1
11	28	9	6	3	1	75	10	1	278	6	2	709.97	49	15
11	28	9	6	3	1	75	10	1	279	6	9	8.15	49	1
11	28	9	6	3	1	75	10	1	279	6	9	209.3	49	5
11	28	9	6	3	1	75	10	1	279	6	9	771.01	49	16
11	28	9	6	3	1	75	10	1	280	6	1	11.81	49	1
11	28	9	6	3	1	75	10	1	280	6	1	257.21	49	6
11	28	9	6	3	1	75	10	1	280	6	1	757.78	49	16
11	28	9	6	3	1	75	10	1	281	6	5	8.25	49	1
11	28	9	6	3	1	75	10	1	281	6	5	257.23	49	6
11	28	9	6	3	1	75	10	1	281	6	5	677.62	49	14
11	28	9	6	3	1	75	10	1	282	6	7	10.87	49	1
11	28	9	6	3	1	75	10	1	282	6	7	260.27	49	6
11	28	9	6	3	1	75	10	1	283	6	3	60.42	49	2
11	28	9	6	3	1	75	10	1	283	6	3	311.48	49	7
11	28	9	6	3	1	75	10	1	284	6	2	119.08	49	3
11	28	9	6	3	1	75	10	1	284	6	2	361.47	49	8
11	28	9	6	3	1	75	10	1	285	6	10	60.74	49	2
11	28	9	6	3	1	75	10	1	285	6	10	262.67	49	6
11	28	9	6	3	1	75	10	1	285	6	10	781.72	49	16
11	28	9	6	3	1	75	10	1	286	6	9	11.29	49	1
11	28	9	6	3	1	75	10	1	286	6	9	212.44	49	5
11	28	9	6	3	1	75	10	1	287	6	8	62.26	49	2
11	28	9	6	3	1	75	10	1	287	6	8	309.75	49	7
11	28	9	6	3	1	75	10	1	288	16	9	85.35	49	2
11	28	9	6	3	1	75	10	1	288	16	9	310.91	49	7
11	28	9	6	3	1	75	10	1	288	16	9	560.39	49	12
11	28	9	6	3	1	75	10	1	289	6	5	546.12	49	11
11	28	9	6	3	1	75	10	1	289	6	5	759.41	49	16
11	28	9	6	3	1	75	10	1	290	6	1	7.88	49	1
11	28	9	6	3	1	75	10	1	290	6	1	257.32	49	6
11	28	9	6	3	1	75	10	1	290	6	1	757.44	49	16
11	28	9	6	3	1	75	10	1	291	6	7	8.22	49	1
11	28	9	6	3	1	75	10	1	291	6	7	257.7	49	6
11	28	9	6	3	1	75	10	1	292	16	2	119.84	49	3
11	28	9	6	3	1	75	10	1	292	16	2	357.69	49	8
11	28	9	6	3	1	75	10	1	293	6	3	307.18	49	7
11	28	9	6	3	1	75	10	1	293	6	3	557.4	49	12
11	28	9	6	3	1	75	10	1	294	6	6	159.27	49	4
11	28	9	6	3	1	75	10	1	294	6	6	359.46	49	8
11	28	9	6	3	1	75	10	1	295	6	4	218.72	49	5
11	28	9	6	3	1	75	10	1	295	6	4	459.24	49	10
11	28	9	6	3	1	75	10	1	296	16	5	64.62	49	2
11	28	9	6	3	1	75	10	1	296	16	5	309.55	49	7
11	28	9	6	3	1	75	10	1	296	16	5	509.79	49	11
11	28	9	6	3	1	75	10	1	297	16	4	615.24	49	13
11	28	9	6	3	1	75	10	1	298	6	2	11.63	49	1
11	28	9	6	3	1	75	10	1	298	6	2	261.95	49	6
11	28	9	6	3	1	75	10	1	298	6	2	739.13	49	15
11	28	9	6	3	1	75	10	1	299	6	9	10.75	49	1
11	28	9	6	3	1	75	10	1	299	6	9	260.51	49	6
11	28	9	6	3	1	75	10	1	299	6	9	775.76	49	16
11	28	9	6	3	1	75	10	1	300	6	10	9.5	49	1
11	28	9	6	3	1	75	10	1	300	6	10	209.91	49	5
11	28	9	6	3	1	75	10	1	300	6	10	779.22	49	16
11	28	9	6	3	1	75	10	1	301	16	6	10.88	49	1
11	28	9	6	3	1	75	10	1	301	16	6	214.7	49	5
11	28	9	6	3	1	75	10	1	301	16	6	789.93	49	16
11	28	9	6	3	1	75	10	1	302	6	1	10.95	49	1
11	28	9	6	3	1	75	10	1	302	6	1	212.56	49	5
11	28	9	6	3	1	75	10	1	303	6	8	22.49	49	1
11	28	9	6	3	1	75	10	1	303	6	8	257.39	49	6
11	28	9	6	3	1	75	10	1	303	6	8	780.99	49	16
11	28	9	6	3	1	75	10	1	304	16	3	8.25	49	1
11	28	9	6	3	1	75	10	1	304	16	3	257.05	49	6
11	28	9	6	3	1	75	10	1	305	6	6	91.96	49	2
11	28	9	6	3	1	75	10	1	305	6	6	307.4	49	7
11	28	9	6	3	1	75	10	1	306	16	8	13.74	49	1
11	28	9	6	3	1	75	10	1	306	16	8	259.8	49	6
11	28	9	6	3	1	75	10	1	306	16	8	460.72	49	10
11	28	9	6	3	1	75	10	1	307	6	7	17.88	49	1
11	28	9	6	3	1	75	10	1	307	6	7	260.44	49	6
11	28	9	6	3	1	75	10	1	308	6	3	40.87	49	1
11	28	9	6	3	1	75	10	1	308	6	3	262.47	49	6
11	28	9	6	3	1	75	10	1	309	16	7	262.37	49	6
11	28	9	6	3	1	75	10	1	309	16	7	512.75	49	11
11	28	9	6	3	1	75	10	1	310	16	1	316.21	49	7
11	28	9	6	3	1	75	10	1	310	16	1	561.96	49	12
11	28	9	6	3	1	75	10	1	311	6	5	0	-1	16
11	28	9	6	3	1	75	10	1	312	6	4	277.17	49	6
11	28	9	6	3	1	75	10	1	312	6	4	508.5	49	11
11	28	9	6	3	1	75	10	1	313	6	7	57.42	49	2
11	28	9	6	3	1	75	10	1	313	6	7	307.23	49	7
11	28	9	6	3	1	75	10	1	313	6	7	791.43	49	16
11	28	9	6	3	1	75	10	1	314	16	9	8.27	49	1
11	28	9	6	3	1	75	10	1	314	16	9	209.99	49	5
11	28	9	6	3	1	75	10	1	315	6	9	583	49	12
11	28	9	6	3	1	75	10	1	316	16	4	8.28	49	1
11	28	9	6	3	1	75	10	1	317	6	2	131.57	49	3
11	28	9	6	3	1	75	10	1	317	6	2	357.24	49	8
11	28	9	6	3	1	75	10	1	318	6	4	11.48	49	1
11	28	9	6	3	1	75	10	1	318	6	4	257.06	49	6
11	28	9	6	3	1	75	10	1	318	6	4	710.84	49	15
11	28	9	6	3	1	75	10	1	319	16	5	8.99	49	1
11	28	9	6	3	1	75	10	1	319	16	5	210.33	49	5
11	28	9	6	3	1	75	10	1	320	6	5	685.35	49	14
11	28	9	6	3	1	75	10	1	321	6	1	11.16	49	1
11	28	9	6	3	1	75	10	1	321	6	1	760.87	49	16
11	28	9	6	3	1	75	10	1	322	6	10	11.4	49	1
11	28	9	6	3	1	75	10	1	322	6	10	212.49	49	5
11	28	9	6	3	1	75	10	1	322	6	10	688.43	49	14
11	28	9	6	3	1	75	10	1	323	16	10	10.51	49	1
11	28	9	6	3	1	75	10	1	323	16	10	211.17	49	5
11	28	9	6	3	1	75	10	1	323	16	10	791.73	49	16
11	28	9	6	3	1	75	10	1	324	16	2	9.73	49	1
11	28	9	6	3	1	75	10	1	324	16	2	257.91	49	6
11	28	9	6	3	1	75	10	1	325	6	6	687.37	49	14
11	28	9	6	3	1	75	10	1	326	6	3	7.97	49	1
11	28	9	6	3	1	75	10	1	326	6	3	257.45	49	6
11	28	9	6	3	1	75	10	1	327	6	8	58.73	49	2
11	28	9	6	3	1	75	10	1	327	6	8	260.72	49	6
11	28	9	6	3	1	75	10	1	328	6	5	157.17	49	4
11	28	9	6	3	1	75	10	1	328	6	5	357.36	49	8
11	28	9	6	3	1	75	10	1	329	6	10	57.7	49	2
11	28	9	6	3	1	75	10	1	329	6	10	259.61	49	6
11	28	9	6	3	1	75	10	1	329	6	10	767.19	49	16
11	28	9	6	3	1	75	10	1	330	6	4	8.77	49	1
11	28	9	6	3	1	75	10	1	330	6	4	209.23	49	5
11	28	9	6	3	1	75	10	1	330	6	4	779.1	49	16
11	28	9	6	3	1	75	10	1	331	6	9	9.18	49	1
11	28	9	6	3	1	75	10	1	331	6	9	257.65	49	6
11	28	9	6	3	1	75	10	1	332	6	2	37.48	49	1
11	28	9	6	3	1	75	10	1	332	6	2	260.09	49	6
11	28	9	6	3	1	75	10	1	333	6	8	66.25	49	2
11	28	9	6	3	1	75	10	1	333	6	8	310.53	49	7
11	28	9	6	3	1	75	10	1	334	6	7	64.07	49	2
11	28	9	6	3	1	75	10	1	334	6	7	310.55	49	7
11	28	9	6	3	1	75	10	1	334	6	7	787.65	49	16
11	28	9	6	3	1	75	10	1	335	6	3	61.82	49	2
11	28	9	6	3	1	75	10	1	335	6	3	313.02	49	7
11	28	9	6	3	1	75	10	1	335	6	3	717.4	49	15
11	28	9	6	3	1	75	10	1	336	6	6	9.04	49	1
11	28	9	6	3	1	75	10	1	336	6	6	211.36	49	5
11	28	9	6	3	1	75	10	1	336	6	6	688.71	49	14
11	28	9	6	3	1	75	10	1	337	6	1	8.97	49	1
11	28	9	6	3	1	75	10	1	337	6	1	210.29	49	5
11	28	9	6	3	1	75	10	1	337	6	1	715.18	49	15
11	28	9	6	3	1	75	10	1	338	6	7	8.08	49	1
11	28	9	6	3	1	75	10	1	338	6	7	257.55	49	6
11	28	9	6	3	1	75	10	1	338	6	7	691.54	49	14
11	28	9	6	3	1	75	10	1	339	6	9	9.24	49	1
11	28	9	6	3	1	75	10	1	339	6	9	259.47	49	6
11	28	9	6	3	1	75	10	1	339	6	9	730.21	49	15
11	28	9	6	3	1	75	10	1	340	6	4	57.79	49	2
11	28	9	6	3	1	75	10	1	340	6	4	307.29	49	7
11	28	9	6	3	1	75	10	1	340	6	4	793.14	49	16
11	28	9	6	3	1	75	10	1	341	6	10	8.08	49	1
11	28	9	6	3	1	75	10	1	341	6	10	208.16	49	5
11	28	9	6	3	1	75	10	1	341	6	10	766.25	49	16
11	28	9	6	3	1	75	10	1	342	6	5	8.76	49	1
11	28	9	6	3	1	75	10	1	342	6	5	210.12	49	5
11	28	9	6	3	1	75	10	1	342	6	5	760.41	49	16
11	28	9	6	3	1	75	10	1	343	16	6	9.22	49	1
11	28	9	6	3	1	75	10	1	343	16	6	209.52	49	5
11	28	9	6	3	1	75	10	1	343	16	6	766.57	49	16
11	28	9	6	3	1	75	10	1	344	16	3	10.56	49	1
11	28	9	6	3	1	75	10	1	344	16	3	259.83	49	6
11	28	9	6	3	1	75	10	1	345	16	8	0	-1	16
11	28	9	6	3	1	75	10	1	346	6	2	682.16	49	14
11	28	9	6	3	1	75	10	1	347	16	2	11.14	49	1
11	28	9	6	3	1	75	10	1	348	6	1	43.18	49	1
11	28	9	6	3	1	75	10	1	348	6	1	258.71	49	6
11	28	9	6	3	1	75	10	1	349	6	3	28.69	49	1
11	28	9	6	3	1	75	10	1	349	6	3	258.34	49	6
11	28	9	6	3	1	75	10	1	350	6	6	118.56	49	3
11	28	9	6	3	1	75	10	1	350	6	6	358.03	49	8
11	28	9	6	3	1	75	10	1	351	6	8	123.73	49	3
11	28	9	6	3	1	75	10	1	351	6	8	357.39	49	8
11	28	9	6	3	1	75	10	1	351	6	8	559.86	49	12
11	28	9	6	3	1	75	10	1	352	6	2	268.82	49	6
11	28	9	6	3	1	75	10	1	352	6	2	509.93	49	11
11	28	9	6	3	1	75	10	1	353	6	9	264.27	49	6
11	28	9	6	3	1	75	10	1	353	6	9	509.15	49	11
11	28	9	6	3	1	75	10	1	354	6	10	490.56	49	10
11	28	9	6	3	1	75	10	1	354	6	10	707.65	49	15
11	28	9	6	3	1	75	10	1	355	6	7	37.46	49	1
11	28	9	6	3	1	75	10	1	356	16	9	19.88	49	1
11	28	9	6	3	1	75	10	1	356	16	9	260.62	49	6
11	28	9	6	3	1	75	10	1	356	16	9	460.62	49	10
11	28	9	6	3	1	75	10	1	356	16	9	718.42	49	15
11	28	9	6	3	1	75	10	1	357	6	1	10.38	49	1
11	28	9	6	3	1	75	10	1	357	6	1	210.64	49	5
11	28	9	6	3	1	75	10	1	357	6	1	618.81	49	13
11	28	9	6	3	1	75	10	1	358	6	6	10.91	49	1
11	28	9	6	3	1	75	10	1	358	6	6	211.54	49	5
11	28	9	6	3	1	75	10	1	358	6	6	629.99	49	13
11	28	9	6	3	1	75	10	1	359	6	5	11.04	49	1
11	28	9	6	3	1	75	10	1	359	6	5	760.51	49	16
11	28	9	6	3	1	75	10	1	360	6	8	33.5	49	1
11	28	9	6	3	1	75	10	1	360	6	8	261.79	49	6
11	28	9	6	3	1	75	10	1	360	6	8	765.23	49	16
11	28	9	6	3	1	75	10	1	361	6	3	9.8	49	1
11	28	9	6	3	1	75	10	1	361	6	3	210.58	49	5
11	28	9	6	3	1	75	10	1	361	6	3	777.22	49	16
11	28	9	6	3	1	75	10	1	362	6	4	9.35	49	1
11	28	9	6	3	1	75	10	1	362	6	4	209.37	49	5
11	28	9	6	3	1	75	10	1	362	6	4	758.24	49	16
11	28	9	6	3	1	75	10	1	363	6	5	7.63	49	1
11	28	9	6	3	1	75	10	1	363	6	5	257.34	49	6
11	28	9	6	3	1	75	10	1	363	6	5	736.93	49	15
11	28	9	6	3	1	75	10	1	364	6	2	8.5	49	1
11	28	9	6	3	1	75	10	1	364	6	2	210.17	49	5
11	28	9	6	3	1	75	10	1	364	6	2	670.27	49	14
11	28	9	6	3	1	75	10	1	365	16	10	25.59	49	1
11	28	9	6	3	1	75	10	1	365	16	10	259.67	49	6
11	28	9	6	3	1	75	10	1	366	6	10	645.41	49	13
11	28	9	6	3	1	75	10	1	367	6	9	8.53	49	1
11	28	9	6	3	1	75	10	1	367	6	9	570.73	49	12
11	28	9	6	3	1	75	10	1	368	6	4	8.16	49	1
11	28	9	6	3	1	75	10	1	368	6	4	573.43	49	12
11	28	9	6	3	1	75	10	1	369	6	3	10.62	49	1
11	28	9	6	3	1	75	10	1	369	6	3	682.69	49	14
11	28	9	6	3	1	75	10	1	370	6	8	20.16	49	1
11	28	9	6	3	1	75	10	1	370	6	8	260.49	49	6
11	28	9	6	3	1	75	10	1	371	6	7	62.93	49	2
11	28	9	6	3	1	75	10	1	371	6	7	263.27	49	6
11	28	9	6	3	1	75	10	1	371	6	7	760.52	49	16
11	28	9	6	3	1	75	10	1	372	6	6	12.43	49	1
11	28	9	6	3	1	75	10	1	372	6	6	261.46	49	6
11	28	9	6	3	1	75	10	1	373	6	1	9.53	49	1
11	28	9	6	3	1	75	10	1	373	6	1	210.97	49	5
11	28	9	6	3	1	75	10	1	373	6	1	763.12	49	16
11	28	9	6	3	1	75	10	1	374	6	2	8.45	49	1
11	28	9	6	3	1	75	10	1	374	6	2	209.76	49	5
11	28	9	6	3	1	75	10	1	375	6	10	15	49	1
11	28	9	6	3	1	75	10	1	375	6	10	768.05	49	16
11	28	9	6	3	1	75	10	1	376	6	9	10.66	49	1
11	28	9	6	3	1	75	10	1	376	6	9	211.98	49	5
11	28	9	6	3	1	75	10	1	376	6	9	734.17	49	15
11	28	9	6	3	1	75	10	1	377	6	7	8.42	49	1
11	28	9	6	3	1	75	10	1	377	6	7	210.07	49	5
11	28	9	6	3	1	75	10	1	377	6	7	694.72	49	14
11	28	9	6	3	1	75	10	1	378	16	7	7.9	49	1
11	28	9	6	3	1	75	10	1	378	16	7	209.9	49	5
11	28	9	6	3	1	75	10	1	379	16	3	0	-1	16
11	28	9	6	3	1	75	10	1	380	16	5	673.9	49	14
11	28	9	6	3	1	75	10	1	381	6	5	10.11	49	1
11	28	9	6	3	1	75	10	1	381	6	5	211.98	49	5
11	28	9	6	3	1	75	10	1	382	16	6	10.72	49	1
11	28	9	6	3	1	75	10	1	382	16	6	211.83	49	5
11	28	9	6	3	1	75	10	1	382	16	6	762.04	49	16
11	28	9	6	3	1	75	10	1	383	6	8	10.75	49	1
11	28	9	6	3	1	75	10	1	383	6	8	261.45	49	6
11	28	9	6	3	1	75	10	1	384	6	1	58.32	49	2
11	28	9	6	3	1	75	10	1	384	6	1	310.18	49	7
11	28	9	6	3	1	75	10	1	385	6	6	140.66	49	3
11	28	9	6	3	1	75	10	1	385	6	6	357.6	49	8
11	28	9	6	3	1	75	10	1	386	6	3	87.73	49	2
11	28	9	6	3	1	75	10	1	386	6	3	308.61	49	7
11	28	9	6	3	1	75	10	1	386	6	3	729.98	49	15
11	28	9	6	3	1	75	10	1	387	16	8	9.19	49	1
11	28	9	6	3	1	75	10	1	387	16	8	257.35	49	6
11	28	9	6	3	1	75	10	1	387	16	8	790.54	49	16
11	28	9	6	3	1	75	10	1	388	6	4	8.4	49	1
11	28	9	6	3	1	75	10	1	388	6	4	209.27	49	5
11	28	9	6	3	1	75	10	1	389	6	7	24.32	49	1
11	28	9	6	3	1	75	10	1	389	6	7	257.23	49	6
11	28	9	6	3	1	75	10	1	390	6	1	159.93	49	4
11	28	9	6	3	1	75	10	1	390	6	1	407.94	49	9
11	28	9	6	3	1	75	10	1	391	6	2	514.84	49	11
11	28	9	6	3	1	75	10	1	391	6	2	758.5	49	16
11	28	9	6	3	1	75	10	1	392	6	5	10.65	49	1
11	28	9	6	3	1	75	10	1	392	6	5	611.76	49	13
11	28	9	6	3	1	75	10	1	393	16	1	10.58	49	1
11	28	9	6	3	1	75	10	1	393	16	1	632.3	49	13
11	28	9	6	3	1	75	10	1	394	6	10	10.74	49	1
11	28	9	6	3	1	75	10	1	394	6	10	212.78	49	5
11	28	9	6	3	1	75	10	1	394	6	10	727.14	49	15
11	28	9	6	3	1	75	10	1	395	16	4	11.22	49	1
11	28	9	6	3	1	75	10	1	395	16	4	262.14	49	6
11	28	9	6	3	1	75	10	1	396	6	4	30.82	49	1
11	28	9	6	3	1	75	10	1	396	6	4	260.7	49	6
11	28	9	6	3	1	75	10	1	397	6	9	70.99	49	2
11	28	9	6	3	1	75	10	1	397	6	9	307.95	49	7
11	28	9	6	3	1	75	10	1	398	6	6	187.94	49	4
11	28	9	6	3	1	75	10	1	398	6	6	409.09	49	9
11	28	9	6	3	1	75	10	1	399	6	3	360.29	49	8
11	28	9	6	3	1	75	10	1	399	6	3	560.32	49	12
11	28	9	6	3	1	75	10	1	400	6	8	357.63	49	8
11	28	9	6	3	1	75	10	1	400	6	8	610.11	49	13
11	28	9	6	3	1	75	10	1	401	16	5	8.11	49	1
11	28	9	6	3	1	75	10	1	401	16	5	362.46	49	8
11	28	9	6	3	1	75	10	1	401	16	5	607.3	49	13
11	28	9	6	3	1	75	10	1	402	6	6	388.27	49	8
11	28	9	6	3	1	75	10	1	402	6	6	607.19	49	13
11	28	9	6	3	1	75	10	1	403	16	9	8.3	49	1
11	28	9	6	3	1	75	10	1	403	16	9	257.84	49	6
11	28	9	6	3	1	75	10	1	403	16	9	457.92	49	10
11	28	9	6	3	1	75	10	1	404	6	10	159.01	49	4
11	28	9	6	3	1	75	10	1	404	6	10	359.08	49	8
11	28	9	6	3	1	75	10	1	405	6	9	382.74	49	8
11	28	9	6	3	1	75	10	1	405	6	9	609.89	49	13
11	28	9	6	3	1	75	10	1	406	16	2	570.68	49	12
11	28	9	6	3	1	75	10	1	407	16	10	13.38	49	1
11	28	9	6	3	1	75	10	1	407	16	10	741.92	49	15
11	28	9	6	3	1	75	10	1	408	6	5	10.33	49	1
11	28	9	6	3	1	75	10	1	408	6	5	764.16	49	16
11	28	9	6	3	1	75	10	1	409	16	4	9.52	49	1
11	28	9	6	3	1	75	10	1	409	16	4	211.09	49	5
11	28	9	6	3	1	75	10	1	409	16	4	780.47	49	16
11	28	9	6	3	1	75	10	1	410	16	6	8.79	49	1
11	28	9	6	3	1	75	10	1	410	16	6	209.62	49	5
11	28	9	6	3	1	75	10	1	411	6	7	158.27	49	4
11	28	9	6	3	1	75	10	1	411	6	7	359.32	49	8
11	28	9	6	3	1	75	10	1	412	16	7	390.53	49	8
11	28	9	6	3	1	75	10	1	412	16	7	609.16	49	13
11	28	9	6	3	1	75	10	1	413	6	4	307.93	49	7
11	28	9	6	3	1	75	10	1	413	6	4	561.64	49	12
11	28	9	6	3	1	75	10	1	414	16	8	641.69	49	13
11	28	9	6	3	1	75	10	1	415	6	2	9.17	49	1
11	28	9	6	3	1	75	10	1	416	6	1	110.69	49	3
11	28	9	6	3	1	75	10	1	416	6	1	360.55	49	8
11	28	9	6	3	1	75	10	1	417	6	8	541.78	49	11
11	28	9	6	3	1	75	10	1	417	6	8	759.93	49	16
11	28	9	6	3	1	75	10	1	418	6	3	10.54	49	1
11	28	9	6	3	1	75	10	1	418	6	3	762.3	49	16
11	28	9	6	3	1	75	10	1	419	6	2	11.23	49	1
11	28	9	6	3	1	75	10	1	419	6	2	212.2	49	5
11	28	9	6	3	1	75	10	1	419	6	2	462.87	49	10
11	28	9	6	3	1	75	10	1	420	6	10	243	49	5
11	28	9	6	3	1	75	10	1	420	6	10	459.74	49	10
11	28	9	6	3	1	75	10	1	421	16	3	475.63	49	10
11	28	9	6	3	1	75	10	1	421	16	3	708.01	49	15
11	28	9	6	3	1	75	10	1	422	6	9	8.28	49	1
11	28	9	6	3	1	75	10	1	422	6	9	626.99	49	13
11	28	9	6	3	1	75	10	1	423	16	1	7.76	49	1
11	28	9	6	3	1	75	10	1	423	16	1	209.81	49	5
11	28	9	6	3	1	75	10	1	423	16	1	727.98	49	15
11	28	9	6	3	1	75	10	1	424	6	7	8.2	49	1
11	28	9	6	3	1	75	10	1	424	6	7	209.99	49	5
11	28	9	6	3	1	75	10	1	425	6	6	109.72	49	3
11	28	9	6	3	1	75	10	1	425	6	6	359.72	49	8
11	28	9	6	3	1	75	10	1	426	16	6	89.79	49	2
11	28	9	6	3	1	75	10	1	426	16	6	309.33	49	7
11	28	9	6	3	1	75	10	1	427	6	5	587.2	49	12
11	28	9	6	3	1	75	10	1	428	16	7	11.57	49	1
11	28	9	6	3	1	75	10	1	428	16	7	642.97	49	13
11	28	9	6	3	1	75	10	1	429	6	8	10.69	49	1
11	28	9	6	3	1	75	10	1	429	6	8	688.79	49	14
11	28	9	6	3	1	75	10	1	430	6	1	13.37	49	1
11	28	9	6	3	1	75	10	1	430	6	1	787.44	49	16
11	28	9	6	3	1	75	10	1	431	16	1	12.92	49	1
11	28	9	6	3	1	75	10	1	431	16	1	262.8	49	6
11	28	9	6	3	1	75	10	1	432	6	3	110.15	49	3
11	28	9	6	3	1	75	10	1	432	6	3	312.7	49	7
11	28	9	6	3	1	75	10	1	433	6	4	77.19	49	2
11	28	9	6	3	1	75	10	1	433	6	4	308.59	49	7
11	28	9	6	3	1	75	10	1	434	6	6	65.78	49	2
11	28	9	6	3	1	75	10	1	434	6	6	310.93	49	7
11	28	9	6	3	1	75	10	1	435	6	1	239.34	49	5
11	28	9	6	3	1	75	10	1	435	6	1	459.51	49	10
11	28	9	6	3	1	75	10	1	436	6	4	162.35	49	4
11	28	9	6	3	1	75	10	1	436	6	4	409.15	49	9
11	28	9	6	3	1	75	10	1	437	6	10	467.33	49	10
11	28	9	6	3	1	75	10	1	437	6	10	707.3	49	15
11	28	9	6	3	1	75	10	1	438	6	5	274.43	49	6
11	28	9	6	3	1	75	10	1	438	6	5	510.27	49	11
11	28	9	6	3	1	75	10	1	439	16	10	116.14	49	3
11	28	9	6	3	1	75	10	1	439	16	10	360.09	49	8
11	28	9	6	3	1	75	10	1	440	6	7	9.11	49	1
11	28	9	6	3	1	75	10	1	440	6	7	209.56	49	5
11	28	9	6	3	1	75	10	1	440	6	7	780.98	49	16
11	28	9	6	3	1	75	10	1	441	6	2	10.92	49	1
11	28	9	6	3	1	75	10	1	441	6	2	260.16	49	6
11	28	9	6	3	1	75	10	1	442	6	9	62.5	49	2
11	28	9	6	3	1	75	10	1	442	6	9	312.08	49	7
11	28	9	6	3	1	75	10	1	443	6	8	134.46	49	3
11	28	9	6	3	1	75	10	1	443	6	8	360.45	49	8
11	28	9	6	3	1	75	10	1	444	6	3	231.4	49	5
11	28	9	6	3	1	75	10	1	444	6	3	462.16	49	10
11	28	9	6	3	1	75	10	1	445	6	5	535.35	49	11
11	28	9	6	3	1	75	10	1	445	6	5	762.62	49	16
11	28	9	6	3	1	75	10	1	446	6	4	9.24	49	1
11	28	9	6	3	1	75	10	1	446	6	4	508.56	49	11
11	28	9	6	3	1	75	10	1	446	6	4	758.77	49	16
11	28	9	6	3	1	75	10	1	447	6	9	11.59	49	1
11	28	9	6	3	1	75	10	1	447	6	9	742.88	49	15
11	28	9	6	3	1	75	10	1	448	6	2	8.51	49	1
11	28	9	6	3	1	75	10	1	448	6	2	209.78	49	5
11	28	9	6	3	1	75	10	1	449	6	10	8.13	49	1
11	28	9	6	3	1	75	10	1	449	6	10	209.55	49	5
11	28	9	6	3	1	75	10	1	450	6	8	63.15	49	2
11	28	9	6	3	1	75	10	1	450	6	8	308.33	49	7
