SubjectNum	Age	Gender	PressedTask	Block Type	Block Repeat Num	Response Rate	Onset	Block	Trial	ImgType	ImgNum	RT	PressedC	FrameC
11	28	9	6	3	1	75	10	1	1	6	5	420.04	49	7
11	28	9	6	3	1	75	10	1	1	6	5	648.05	49	12
11	28	9	6	3	1	75	10	1	2	6	10	10.26	49	1
11	28	9	6	3	1	75	10	1	2	6	10	683.4	49	14
11	28	9	6	3	1	75	10	1	3	6	4	8.93	49	1
11	28	9	6	3	1	75	10	1	3	6	4	210.94	49	5
11	28	9	6	3	1	75	10	1	3	6	4	461.84	49	10
11	28	9	6	3	1	75	10	1	3	6	4	730.62	49	15
11	28	9	6	3	1	75	10	1	4	6	9	10.96	49	1
11	28	9	6	3	1	75	10	1	4	6	9	260.69	49	6
11	28	9	6	3	1	75	10	1	4	6	9	711.44	49	15
11	28	9	6	3	1	75	10	1	5	16	7	12.72	49	1
11	28	9	6	3	1	75	10	1	5	16	7	263.39	49	6
11	28	9	6	3	1	75	10	1	5	16	7	511.17	49	11
11	28	9	6	3	1	75	10	1	6	6	2	711.92	49	15
11	28	9	6	3	1	75	10	1	7	6	3	8.51	49	1
11	28	9	6	3	1	75	10	1	7	6	3	210.42	49	5
11	28	9	6	3	1	75	10	1	7	6	3	620.97	49	13
11	28	9	6	3	1	75	10	1	8	16	9	8.02	49	1
11	28	9	6	3	1	75	10	1	8	16	9	657.83	49	14
11	28	9	6	3	1	75	10	1	9	6	8	9.23	49	1
11	28	9	6	3	1	75	10	1	9	6	8	210.64	49	5
11	28	9	6	3	1	75	10	1	9	6	8	722.92	49	15
11	28	9	6	3	1	75	10	1	10	16	2	13.54	49	1
11	28	9	6	3	1	75	10	1	10	16	2	262.34	49	6
11	28	9	6	3	1	75	10	1	11	6	7	735.57	49	15
11	28	9	6	3	1	75	10	1	12	6	6	11.06	49	1
11	28	9	6	3	1	75	10	1	12	6	6	212.69	49	5
11	28	9	6	3	1	75	10	1	12	6	6	713.71	49	15
11	28	9	6	3	1	75	10	1	13	6	1	10.68	49	1
11	28	9	6	3	1	75	10	1	13	6	1	211.72	49	5
11	28	9	6	3	1	75	10	1	13	6	1	761.39	49	16
11	28	9	6	3	1	75	10	1	14	16	5	11.24	49	1
11	28	9	6	3	1	75	10	1	14	16	5	261.15	49	6
11	28	9	6	3	1	75	10	1	15	6	5	481.69	49	10
11	28	9	6	3	1	75	10	1	15	6	5	712.79	49	15
11	28	9	6	3	1	75	10	1	16	6	2	11.52	49	1
11	28	9	6	3	1	75	10	1	16	6	2	715.68	49	15
11	28	9	6	3	1	75	10	1	17	6	4	7.76	49	1
11	28	9	6	3	1	75	10	1	17	6	4	257.58	49	6
11	28	9	6	3	1	75	10	1	17	6	4	719.8	49	15
11	28	9	6	3	1	75	10	1	18	6	9	7.56	49	1
11	28	9	6	3	1	75	10	1	18	6	9	209.46	49	5
11	28	9	6	3	1	75	10	1	18	6	9	773	49	16
11	28	9	6	3	1	75	10	1	19	6	10	8.2	49	1
11	28	9	6	3	1	75	10	1	19	6	10	210.09	49	5
11	28	9	6	3	1	75	10	1	19	6	10	460.28	49	10
11	28	9	6	3	1	75	10	1	19	6	10	790.8	49	16
11	28	9	6	3	1	75	10	1	20	16	1	9.1	49	1
11	28	9	6	3	1	75	10	1	20	16	1	257.62	49	6
11	28	9	6	3	1	75	10	1	21	6	3	512.95	49	11
11	28	9	6	3	1	75	10	1	21	6	3	760.3	49	16
11	28	9	6	3	1	75	10	1	22	16	10	11.11	49	1
11	28	9	6	3	1	75	10	1	22	16	10	710.96	49	15
11	28	9	6	3	1	75	10	1	23	6	7	10.07	49	1
11	28	9	6	3	1	75	10	1	23	6	7	260.73	49	6
11	28	9	6	3	1	75	10	1	24	16	4	59.09	49	2
11	28	9	6	3	1	75	10	1	24	16	4	308.47	49	7
11	28	9	6	3	1	75	10	1	24	16	4	793.77	49	16
11	28	9	6	3	1	75	10	1	25	6	8	8.62	49	1
11	28	9	6	3	1	75	10	1	25	6	8	210.1	49	5
11	28	9	6	3	1	75	10	1	26	16	3	25.81	49	1
11	28	9	6	3	1	75	10	1	26	16	3	257.57	49	6
11	28	9	6	3	1	75	10	1	27	6	6	458.16	49	10
11	28	9	6	3	1	75	10	1	27	6	6	707.28	49	15
11	28	9	6	3	1	75	10	1	28	6	1	8.24	49	1
11	28	9	6	3	1	75	10	1	29	6	6	71.68	49	2
11	28	9	6	3	1	75	10	1	29	6	6	309.71	49	7
11	28	9	6	3	1	75	10	1	30	6	1	109.53	49	3
11	28	9	6	3	1	75	10	1	30	6	1	373.82	49	8
11	28	9	6	3	1	75	10	1	31	16	6	225.54	49	5
11	28	9	6	3	1	75	10	1	31	16	6	460.6	49	10
11	28	9	6	3	1	75	10	1	32	6	9	271.3	49	6
11	28	9	6	3	1	75	10	1	32	6	9	510.37	49	11
11	28	9	6	3	1	75	10	1	33	6	8	610.53	49	13
11	28	9	6	3	1	75	10	1	34	6	10	12.16	49	1
11	28	9	6	3	1	75	10	1	34	6	10	213.08	49	5
11	28	9	6	3	1	75	10	1	35	16	8	26.82	49	1
11	28	9	6	3	1	75	10	1	35	16	8	259.2	49	6
11	28	9	6	3	1	75	10	1	35	16	8	462.35	49	10
11	28	9	6	3	1	75	10	1	36	6	7	267.93	49	6
11	28	9	6	3	1	75	10	1	36	6	7	508.63	49	11
11	28	9	6	3	1	75	10	1	36	6	7	711.49	49	15
11	28	9	6	3	1	75	10	1	37	6	4	9.2	49	1
11	28	9	6	3	1	75	10	1	37	6	4	408.02	49	9
11	28	9	6	3	1	75	10	1	37	6	4	660.24	49	14
11	28	9	6	3	1	75	10	1	38	6	2	507.58	49	11
11	28	9	6	3	1	75	10	1	38	6	2	709.56	49	15
11	28	9	6	3	1	75	10	1	39	6	5	183.12	49	4
11	28	9	6	3	1	75	10	1	39	6	5	409.12	49	9
11	28	9	6	3	1	75	10	1	39	6	5	791.67	49	16
11	28	9	6	3	1	75	10	1	40	16	7	9.42	49	1
11	28	9	6	3	1	75	10	1	40	16	7	260.38	49	6
11	28	9	6	3	1	75	10	1	41	16	4	0	-1	16
11	28	9	6	3	1	75	10	1	42	6	3	732.18	49	15
11	28	9	6	3	1	75	10	1	43	6	7	13.05	49	1
11	28	9	6	3	1	75	10	1	43	6	7	710.48	49	15
11	28	9	6	3	1	75	10	1	44	6	5	10.74	49	1
11	28	9	6	3	1	75	10	1	44	6	5	212.34	49	5
11	28	9	6	3	1	75	10	1	45	6	2	40.77	49	1
11	28	9	6	3	1	75	10	1	45	6	2	262.39	49	6
11	28	9	6	3	1	75	10	1	45	6	2	509.83	49	11
11	28	9	6	3	1	75	10	1	46	6	1	161.91	49	4
11	28	9	6	3	1	75	10	1	46	6	1	362.29	49	8
11	28	9	6	3	1	75	10	1	47	6	9	24.25	49	1
11	28	9	6	3	1	75	10	1	47	6	9	260.91	49	6
11	28	9	6	3	1	75	10	1	48	6	4	108.56	49	3
11	28	9	6	3	1	75	10	1	48	6	4	310	49	7
11	28	9	6	3	1	75	10	1	48	6	4	760.77	49	16
11	28	9	6	3	1	75	10	1	49	16	5	10.13	49	1
11	28	9	6	3	1	75	10	1	49	16	5	260.47	49	6
11	28	9	6	3	1	75	10	1	50	16	1	482.08	49	10
11	28	9	6	3	1	75	10	1	50	16	1	710.09	49	15
11	28	9	6	3	1	75	10	1	51	6	10	7.95	49	1
11	28	9	6	3	1	75	10	1	51	6	10	209.61	49	5
11	28	9	6	3	1	75	10	1	52	6	6	216.67	49	5
11	28	9	6	3	1	75	10	1	52	6	6	457.2	49	10
11	28	9	6	3	1	75	10	1	53	6	3	69.29	49	2
11	28	9	6	3	1	75	10	1	53	6	3	307.48	49	7
11	28	9	6	3	1	75	10	1	53	6	3	790.06	49	16
11	28	9	6	3	1	75	10	1	54	6	8	10.14	49	1
11	28	9	6	3	1	75	10	1	54	6	8	210.17	49	5
11	28	9	6	3	1	75	10	1	55	16	2	259.31	49	6
11	28	9	6	3	1	75	10	1	55	16	2	460.52	49	10
11	28	9	6	3	1	75	10	1	56	6	2	711.19	49	15
11	28	9	6	3	1	75	10	1	57	6	10	10.98	49	1
11	28	9	6	3	1	75	10	1	58	6	9	64.52	49	2
11	28	9	6	3	1	75	10	1	58	6	9	313.14	49	7
11	28	9	6	3	1	75	10	1	59	16	10	28.09	49	1
11	28	9	6	3	1	75	10	1	59	16	10	261.76	49	6
11	28	9	6	3	1	75	10	1	60	6	1	383.35	49	8
11	28	9	6	3	1	75	10	1	60	6	1	610.66	49	13
11	28	9	6	3	1	75	10	1	61	6	8	75.58	49	2
11	28	9	6	3	1	75	10	1	61	6	8	309.74	49	7
11	28	9	6	3	1	75	10	1	62	6	3	84.02	49	2
11	28	9	6	3	1	75	10	1	62	6	3	309.32	49	7
11	28	9	6	3	1	75	10	1	63	6	6	76.67	49	2
11	28	9	6	3	1	75	10	1	63	6	6	307.23	49	7
11	28	9	6	3	1	75	10	1	64	6	5	676.48	49	14
11	28	9	6	3	1	75	10	1	65	6	7	8.92	49	1
11	28	9	6	3	1	75	10	1	65	6	7	209.94	49	5
11	28	9	6	3	1	75	10	1	66	6	4	260.05	49	6
11	28	9	6	3	1	75	10	1	66	6	4	460.11	49	10
11	28	9	6	3	1	75	10	1	66	6	4	725.45	49	15
11	28	9	6	3	1	75	10	1	67	6	7	11.21	49	1
11	28	9	6	3	1	75	10	1	67	6	7	260.23	49	6
11	28	9	6	3	1	75	10	1	68	6	4	160.06	49	4
11	28	9	6	3	1	75	10	1	68	6	4	360.64	49	8
11	28	9	6	3	1	75	10	1	69	6	10	12.65	49	1
11	28	9	6	3	1	75	10	1	69	6	10	260.45	49	6
11	28	9	6	3	1	75	10	1	70	6	2	11.62	49	1
11	28	9	6	3	1	75	10	1	70	6	2	212.07	49	5
11	28	9	6	3	1	75	10	1	71	6	1	234.1	49	5
11	28	9	6	3	1	75	10	1	71	6	1	458.2	49	10
11	28	9	6	3	1	75	10	1	72	6	9	94.24	49	2
11	28	9	6	3	1	75	10	1	72	6	9	308.21	49	7
11	28	9	6	3	1	75	10	1	73	6	5	89.64	49	2
11	28	9	6	3	1	75	10	1	73	6	5	310.34	49	7
11	28	9	6	3	1	75	10	1	73	6	5	733.57	49	15
11	28	9	6	3	1	75	10	1	74	6	6	10.17	49	1
11	28	9	6	3	1	75	10	1	74	6	6	259.93	49	6
11	28	9	6	3	1	75	10	1	74	6	6	710.12	49	15
11	28	9	6	3	1	75	10	1	75	6	3	8.29	49	1
11	28	9	6	3	1	75	10	1	75	6	3	209.52	49	5
11	28	9	6	3	1	75	10	1	76	6	8	228.27	49	5
11	28	9	6	3	1	75	10	1	76	6	8	459.17	49	10
11	28	9	6	3	1	75	10	1	77	6	5	257.02	49	6
11	28	9	6	3	1	75	10	1	77	6	5	457.17	49	10
11	28	9	6	3	1	75	10	1	78	16	9	276.93	49	6
11	28	9	6	3	1	75	10	1	78	16	9	511.76	49	11
11	28	9	6	3	1	75	10	1	79	16	6	328.66	49	7
11	28	9	6	3	1	75	10	1	79	16	6	560.61	49	12
11	28	9	6	3	1	75	10	1	80	16	3	162.82	49	4
11	28	9	6	3	1	75	10	1	80	16	3	411.36	49	9
11	28	9	6	3	1	75	10	1	81	16	8	562.77	49	12
11	28	9	6	3	1	75	10	1	82	6	4	12.72	49	1
11	28	9	6	3	1	75	10	1	83	16	7	161.33	49	4
11	28	9	6	3	1	75	10	1	84	6	10	741.49	49	15
11	28	9	6	3	1	75	10	1	85	6	2	9.09	49	1
11	28	9	6	3	1	75	10	1	86	6	9	59.03	49	2
11	28	9	6	3	1	75	10	1	86	6	9	307.26	49	7
11	28	9	6	3	1	75	10	1	87	6	7	88.27	49	2
11	28	9	6	3	1	75	10	1	87	6	7	310.06	49	7
11	28	9	6	3	1	75	10	1	87	6	7	757.96	49	16
11	28	9	6	3	1	75	10	1	88	6	8	8.44	49	1
11	28	9	6	3	1	75	10	1	88	6	8	258.03	49	6
11	28	9	6	3	1	75	10	1	89	6	6	90.5	49	2
11	28	9	6	3	1	75	10	1	89	6	6	307.1	49	7
11	28	9	6	3	1	75	10	1	90	6	3	9.17	49	1
11	28	9	6	3	1	75	10	1	90	6	3	211.29	49	5
11	28	9	6	3	1	75	10	1	90	6	3	792.77	49	16
11	28	9	6	3	1	75	10	1	91	6	1	20.35	49	1
11	28	9	6	3	1	75	10	1	91	6	1	258.61	49	6
11	28	9	6	3	1	75	10	1	92	6	7	10.7	49	1
11	28	9	6	3	1	75	10	1	92	6	7	260.31	49	6
11	28	9	6	3	1	75	10	1	93	16	9	11.14	49	1
11	28	9	6	3	1	75	10	1	93	16	9	213.36	49	5
11	28	9	6	3	1	75	10	1	94	6	5	412.38	49	9
11	28	9	6	3	1	75	10	1	94	6	5	660.58	49	14
11	28	9	6	3	1	75	10	1	95	6	2	535.54	49	11
11	28	9	6	3	1	75	10	1	95	6	2	761.09	49	16
11	28	9	6	3	1	75	10	1	96	6	1	9.68	49	1
11	28	9	6	3	1	75	10	1	96	6	1	664.34	49	14
11	28	9	6	3	1	75	10	1	97	6	9	8.32	49	1
11	28	9	6	3	1	75	10	1	97	6	9	208.86	49	5
11	28	9	6	3	1	75	10	1	98	16	2	59.32	49	2
11	28	9	6	3	1	75	10	1	98	16	2	310.31	49	7
11	28	9	6	3	1	75	10	1	99	6	4	590.56	49	12
11	28	9	6	3	1	75	10	1	100	16	4	8.13	49	1
11	28	9	6	3	1	75	10	1	101	6	10	627.53	49	13
11	28	9	6	3	1	75	10	1	102	6	3	11.13	49	1
11	28	9	6	3	1	75	10	1	102	6	3	665.33	49	14
11	28	9	6	3	1	75	10	1	103	6	6	10.58	49	1
11	28	9	6	3	1	75	10	1	103	6	6	685.11	49	14
11	28	9	6	3	1	75	10	1	104	6	8	10.31	49	1
11	28	9	6	3	1	75	10	1	104	6	8	792.5	49	16
11	28	9	6	3	1	75	10	1	105	6	5	10.98	49	1
11	28	9	6	3	1	75	10	1	105	6	5	213	49	5
11	28	9	6	3	1	75	10	1	105	6	5	715.4	49	15
11	28	9	6	3	1	75	10	1	106	6	9	14.19	49	1
11	28	9	6	3	1	75	10	1	106	6	9	721.01	49	15
11	28	9	6	3	1	75	10	1	107	16	10	10.01	49	1
11	28	9	6	3	1	75	10	1	108	6	4	121.34	49	3
11	28	9	6	3	1	75	10	1	108	6	4	360.48	49	8
11	28	9	6	3	1	75	10	1	108	6	4	725.15	49	15
11	28	9	6	3	1	75	10	1	109	16	1	9.35	49	1
11	28	9	6	3	1	75	10	1	110	6	2	0	-1	16
11	28	9	6	3	1	75	10	1	111	6	10	39.47	49	1
11	28	9	6	3	1	75	10	1	111	6	10	257.05	49	6
11	28	9	6	3	1	75	10	1	111	6	10	730.78	49	15
11	28	9	6	3	1	75	10	1	112	6	6	9.23	49	1
11	28	9	6	3	1	75	10	1	112	6	6	260.01	49	6
11	28	9	6	3	1	75	10	1	112	6	6	794.47	49	16
11	28	9	6	3	1	75	10	1	113	16	5	7.94	49	1
11	28	9	6	3	1	75	10	1	113	16	5	210.09	49	5
11	28	9	6	3	1	75	10	1	114	6	3	674.04	49	14
11	28	9	6	3	1	75	10	1	115	6	7	10.48	49	1
11	28	9	6	3	1	75	10	1	116	16	3	32.82	49	1
11	28	9	6	3	1	75	10	1	116	16	3	262.5	49	6
11	28	9	6	3	1	75	10	1	117	16	6	738.3	49	15
11	28	9	6	3	1	75	10	1	118	16	8	12.12	49	1
11	28	9	6	3	1	75	10	1	118	16	8	259.93	49	6
11	28	9	6	3	1	75	10	1	119	6	8	759.08	49	16
11	28	9	6	3	1	75	10	1	120	6	1	10.07	49	1
11	28	9	6	3	1	75	10	1	121	16	5	11.06	49	1
11	28	9	6	3	1	75	10	1	121	16	5	259.85	49	6
11	28	9	6	3	1	75	10	1	122	6	5	117.86	49	3
11	28	9	6	3	1	75	10	1	122	6	5	359.79	49	8
11	28	9	6	3	1	75	10	1	123	6	2	89.31	49	2
11	28	9	6	3	1	75	10	1	123	6	2	309.36	49	7
11	28	9	6	3	1	75	10	1	124	16	4	33.36	49	1
11	28	9	6	3	1	75	10	1	124	16	4	257.35	49	6
11	28	9	6	3	1	75	10	1	125	16	9	0	-1	16
11	28	9	6	3	1	75	10	1	126	16	10	186.81	49	4
11	28	9	6	3	1	75	10	1	126	16	10	408.38	49	9
11	28	9	6	3	1	75	10	1	127	6	10	188.49	49	4
11	28	9	6	3	1	75	10	1	127	6	10	408.8	49	9
11	28	9	6	3	1	75	10	1	128	16	2	64.55	49	2
11	28	9	6	3	1	75	10	1	128	16	2	312.78	49	7
11	28	9	6	3	1	75	10	1	129	16	6	66.17	49	2
11	28	9	6	3	1	75	10	1	129	16	6	312.38	49	7
11	28	9	6	3	1	75	10	1	130	16	8	0	-1	16
11	28	9	6	3	1	75	10	1	131	16	7	564.6	49	12
11	28	9	6	3	1	75	10	1	132	6	9	9.86	49	1
11	28	9	6	3	1	75	10	1	132	6	9	209.91	49	5
11	28	9	6	3	1	75	10	1	132	6	9	789.63	49	16
11	28	9	6	3	1	75	10	1	133	6	4	8.46	49	1
11	28	9	6	3	1	75	10	1	133	6	4	257.86	49	6
11	28	9	6	3	1	75	10	1	134	6	8	18.91	49	1
11	28	9	6	3	1	75	10	1	134	6	8	257.36	49	6
11	28	9	6	3	1	75	10	1	134	6	8	780.75	49	16
11	28	9	6	3	1	75	10	1	135	6	7	8	49	1
11	28	9	6	3	1	75	10	1	135	6	7	260.08	49	6
11	28	9	6	3	1	75	10	1	135	6	7	736	49	15
11	28	9	6	3	1	75	10	1	136	6	3	8.61	49	1
11	28	9	6	3	1	75	10	1	136	6	3	209.68	49	5
11	28	9	6	3	1	75	10	1	136	6	3	789.8	49	16
11	28	9	6	3	1	75	10	1	137	6	6	7.99	49	1
11	28	9	6	3	1	75	10	1	137	6	6	257.11	49	6
11	28	9	6	3	1	75	10	1	137	6	6	773.65	49	16
11	28	9	6	3	1	75	10	1	138	6	1	9.62	49	1
11	28	9	6	3	1	75	10	1	138	6	1	257.71	49	6
11	28	9	6	3	1	75	10	1	139	16	3	18.22	49	1
11	28	9	6	3	1	75	10	1	139	16	3	258.47	49	6
11	28	9	6	3	1	75	10	1	140	16	1	0	-1	16
11	28	9	6	3	1	75	10	1	141	16	6	0	-1	16
11	28	9	6	3	1	75	10	1	142	6	7	725.61	49	15
11	28	9	6	3	1	75	10	1	143	6	2	9.92	49	1
11	28	9	6	3	1	75	10	1	143	6	2	727.95	49	15
11	28	9	6	3	1	75	10	1	144	16	10	10.25	49	1
11	28	9	6	3	1	75	10	1	144	16	10	258.71	49	6
11	28	9	6	3	1	75	10	1	145	6	10	170.39	49	4
11	28	9	6	3	1	75	10	1	145	6	10	407.41	49	9
11	28	9	6	3	1	75	10	1	145	6	10	788.95	49	16
11	28	9	6	3	1	75	10	1	146	6	4	9.88	49	1
11	28	9	6	3	1	75	10	1	146	6	4	257.2	49	6
11	28	9	6	3	1	75	10	1	146	6	4	757.77	49	16
11	28	9	6	3	1	75	10	1	147	6	5	11.05	49	1
11	28	9	6	3	1	75	10	1	147	6	5	257.23	49	6
11	28	9	6	3	1	75	10	1	148	6	1	43.01	49	1
11	28	9	6	3	1	75	10	1	148	6	1	259.99	49	6
11	28	9	6	3	1	75	10	1	149	6	9	107.75	49	3
11	28	9	6	3	1	75	10	1	149	6	9	358.14	49	8
11	28	9	6	3	1	75	10	1	150	6	6	238.65	49	5
11	28	9	6	3	1	75	10	1	150	6	6	459.46	49	10
11	28	9	6	3	1	75	10	1	151	6	3	160.31	49	4
11	28	9	6	3	1	75	10	1	151	6	3	362.49	49	8
11	28	9	6	3	1	75	10	1	152	6	8	25.23	49	1
11	28	9	6	3	1	75	10	1	152	6	8	262.75	49	6
11	28	9	6	3	1	75	10	1	153	6	7	126.69	49	3
11	28	9	6	3	1	75	10	1	153	6	7	362.18	49	8
11	28	9	6	3	1	75	10	1	154	6	9	27.6	49	1
11	28	9	6	3	1	75	10	1	154	6	9	261.68	49	6
11	28	9	6	3	1	75	10	1	155	6	4	60.66	49	2
11	28	9	6	3	1	75	10	1	155	6	4	310	49	7
11	28	9	6	3	1	75	10	1	156	6	2	35.57	49	1
11	28	9	6	3	1	75	10	1	156	6	2	260.66	49	6
11	28	9	6	3	1	75	10	1	157	6	10	79.15	49	2
11	28	9	6	3	1	75	10	1	157	6	10	310.16	49	7
11	28	9	6	3	1	75	10	1	158	6	5	31.1	49	1
11	28	9	6	3	1	75	10	1	158	6	5	257.68	49	6
11	28	9	6	3	1	75	10	1	158	6	5	786.11	49	16
11	28	9	6	3	1	75	10	1	159	6	1	8.17	49	1
11	28	9	6	3	1	75	10	1	159	6	1	257.57	49	6
11	28	9	6	3	1	75	10	1	159	6	1	791.06	49	16
11	28	9	6	3	1	75	10	1	160	6	3	8.17	49	1
11	28	9	6	3	1	75	10	1	160	6	3	229.18	49	5
11	28	9	6	3	1	75	10	1	161	16	4	110.11	49	3
11	28	9	6	3	1	75	10	1	161	16	4	360.49	49	8
11	28	9	6	3	1	75	10	1	162	6	6	763.81	49	16
11	28	9	6	3	1	75	10	1	163	16	8	11.55	49	1
11	28	9	6	3	1	75	10	1	163	16	8	260.1	49	6
11	28	9	6	3	1	75	10	1	164	6	8	511.02	49	11
11	28	9	6	3	1	75	10	1	164	6	8	714.65	49	15
11	28	9	6	3	1	75	10	1	165	6	6	17.28	49	1
11	28	9	6	3	1	75	10	1	166	16	7	171.08	49	4
11	28	9	6	3	1	75	10	1	166	16	7	410.88	49	9
11	28	9	6	3	1	75	10	1	167	6	4	511.37	49	11
11	28	9	6	3	1	75	10	1	167	6	4	760.52	49	16
11	28	9	6	3	1	75	10	1	168	6	5	7.73	49	1
11	28	9	6	3	1	75	10	1	168	6	5	613.6	49	13
11	28	9	6	3	1	75	10	1	169	6	10	9.76	49	1
11	28	9	6	3	1	75	10	1	169	6	10	257.38	49	6
11	28	9	6	3	1	75	10	1	169	6	10	621.61	49	13
11	28	9	6	3	1	75	10	1	170	6	9	9.98	49	1
11	28	9	6	3	1	75	10	1	170	6	9	217.47	49	5
11	28	9	6	3	1	75	10	1	171	6	7	293.01	49	6
11	28	9	6	3	1	75	10	1	171	6	7	507.15	49	11
11	28	9	6	3	1	75	10	1	171	6	7	707.65	49	15
11	28	9	6	3	1	75	10	1	172	16	5	8.12	49	1
11	28	9	6	3	1	75	10	1	173	6	2	45.09	49	1
11	28	9	6	3	1	75	10	1	173	6	2	257.26	49	6
11	28	9	6	3	1	75	10	1	173	6	2	507.27	49	11
11	28	9	6	3	1	75	10	1	173	6	2	764.94	49	16
11	28	9	6	3	1	75	10	1	174	16	2	13.49	49	1
11	28	9	6	3	1	75	10	1	174	16	2	260.4	49	6
11	28	9	6	3	1	75	10	1	174	16	2	780.78	49	16
11	28	9	6	3	1	75	10	1	175	6	1	13.17	49	1
11	28	9	6	3	1	75	10	1	175	6	1	260.32	49	6
11	28	9	6	3	1	75	10	1	176	6	8	110.14	49	3
11	28	9	6	3	1	75	10	1	176	6	8	362.16	49	8
11	28	9	6	3	1	75	10	1	177	6	3	164.18	49	4
11	28	9	6	3	1	75	10	1	177	6	3	412.15	49	9
11	28	9	6	3	1	75	10	1	178	6	5	79.4	49	2
11	28	9	6	3	1	75	10	1	178	6	5	310.52	49	7
11	28	9	6	3	1	75	10	1	178	6	5	780.66	49	16
11	28	9	6	3	1	75	10	1	179	6	4	9.27	49	1
11	28	9	6	3	1	75	10	1	179	6	4	257.8	49	6
11	28	9	6	3	1	75	10	1	180	6	2	57.5	49	2
11	28	9	6	3	1	75	10	1	180	6	2	258.61	49	6
11	28	9	6	3	1	75	10	1	181	6	10	23.88	49	1
11	28	9	6	3	1	75	10	1	181	6	10	257.09	49	6
11	28	9	6	3	1	75	10	1	182	6	9	40.74	49	1
11	28	9	6	3	1	75	10	1	182	6	9	257.29	49	6
11	28	9	6	3	1	75	10	1	183	6	6	123.77	49	3
11	28	9	6	3	1	75	10	1	183	6	6	357.17	49	8
11	28	9	6	3	1	75	10	1	184	16	9	57.69	49	2
11	28	9	6	3	1	75	10	1	184	16	9	309.18	49	7
11	28	9	6	3	1	75	10	1	185	16	1	734.02	49	15
11	28	9	6	3	1	75	10	1	186	6	8	13.58	49	1
11	28	9	6	3	1	75	10	1	186	6	8	259.81	49	6
11	28	9	6	3	1	75	10	1	186	6	8	460.49	49	10
11	28	9	6	3	1	75	10	1	187	6	7	409.97	49	9
11	28	9	6	3	1	75	10	1	187	6	7	610.63	49	13
11	28	9	6	3	1	75	10	1	188	6	3	13.06	49	1
11	28	9	6	3	1	75	10	1	188	6	3	691.91	49	14
11	28	9	6	3	1	75	10	1	189	6	1	9.79	49	1
11	28	9	6	3	1	75	10	1	189	6	1	211.61	49	5
11	28	9	6	3	1	75	10	1	190	6	6	35.26	49	1
11	28	9	6	3	1	75	10	1	190	6	6	258.83	49	6
11	28	9	6	3	1	75	10	1	191	16	3	59.76	49	2
11	28	9	6	3	1	75	10	1	191	16	3	309.58	49	7
11	28	9	6	3	1	75	10	1	192	6	4	0	-1	16
11	28	9	6	3	1	75	10	1	193	6	1	8.46	49	1
11	28	9	6	3	1	75	10	1	193	6	1	258.75	49	6
11	28	9	6	3	1	75	10	1	193	6	1	711.36	49	15
11	28	9	6	3	1	75	10	1	194	6	2	10.93	49	1
11	28	9	6	3	1	75	10	1	194	6	2	256.87	49	6
11	28	9	6	3	1	75	10	1	195	16	6	93.92	49	2
11	28	9	6	3	1	75	10	1	195	16	6	309.46	49	7
11	28	9	6	3	1	75	10	1	195	16	6	557.76	49	12
11	28	9	6	3	1	75	10	1	196	6	5	136.14	49	3
11	28	9	6	3	1	75	10	1	196	6	5	359.26	49	8
11	28	9	6	3	1	75	10	1	196	6	5	559.36	49	12
11	28	9	6	3	1	75	10	1	197	6	9	86.76	49	2
11	28	9	6	3	1	75	10	1	197	6	9	310.13	49	7
11	28	9	6	3	1	75	10	1	198	16	8	262.85	49	6
11	28	9	6	3	1	75	10	1	198	16	8	509.55	49	11
11	28	9	6	3	1	75	10	1	199	16	10	677.21	49	14
11	28	9	6	3	1	75	10	1	200	6	10	11.79	49	1
11	28	9	6	3	1	75	10	1	200	6	10	260.45	49	6
11	28	9	6	3	1	75	10	1	200	6	10	761.08	49	16
11	28	9	6	3	1	75	10	1	201	6	7	10.13	49	1
11	28	9	6	3	1	75	10	1	201	6	7	210.72	49	5
11	28	9	6	3	1	75	10	1	202	6	8	567.18	49	12
11	28	9	6	3	1	75	10	1	203	16	2	8.13	49	1
11	28	9	6	3	1	75	10	1	204	6	3	559.98	49	12
11	28	9	6	3	1	75	10	1	204	6	3	760	49	16
11	28	9	6	3	1	75	10	1	205	16	7	7.97	49	1
11	28	9	6	3	1	75	10	1	205	16	7	607.38	49	13
11	28	9	6	3	1	75	10	1	206	6	7	7.98	49	1
11	28	9	6	3	1	75	10	1	206	6	7	209.24	49	5
11	28	9	6	3	1	75	10	1	206	6	7	759.17	49	16
11	28	9	6	3	1	75	10	1	207	6	1	7.63	49	1
11	28	9	6	3	1	75	10	1	207	6	1	207.95	49	5
11	28	9	6	3	1	75	10	1	208	6	5	186.57	49	4
11	28	9	6	3	1	75	10	1	208	6	5	407.72	49	9
11	28	9	6	3	1	75	10	1	209	16	1	110.49	49	3
11	28	9	6	3	1	75	10	1	209	16	1	360.46	49	8
11	28	9	6	3	1	75	10	1	209	16	1	779.91	49	16
11	28	9	6	3	1	75	10	1	210	6	10	12.68	49	1
11	28	9	6	3	1	75	10	1	211	6	4	12.98	49	1
11	28	9	6	3	1	75	10	1	211	6	4	260.27	49	6
11	28	9	6	3	1	75	10	1	211	6	4	777.55	49	16
11	28	9	6	3	1	75	10	1	212	16	4	11.07	49	1
11	28	9	6	3	1	75	10	1	212	16	4	212.71	49	5
11	28	9	6	3	1	75	10	1	213	6	2	0	-1	16
11	28	9	6	3	1	75	10	1	214	6	9	214.89	49	5
11	28	9	6	3	1	75	10	1	214	6	9	458.35	49	10
11	28	9	6	3	1	75	10	1	214	6	9	736.42	49	15
11	28	9	6	3	1	75	10	1	215	16	5	8.15	49	1
11	28	9	6	3	1	75	10	1	216	6	3	21.55	49	1
11	28	9	6	3	1	75	10	1	216	6	3	257.87	49	6
11	28	9	6	3	1	75	10	1	216	6	3	791.35	49	16
11	28	9	6	3	1	75	10	1	217	6	6	8.26	49	1
11	28	9	6	3	1	75	10	1	217	6	6	260.04	49	6
11	28	9	6	3	1	75	10	1	218	6	8	16.7	49	1
11	28	9	6	3	1	75	10	1	218	6	8	260.23	49	6
11	28	9	6	3	1	75	10	1	219	6	6	159.45	49	4
11	28	9	6	3	1	75	10	1	219	6	6	407.65	49	9
11	28	9	6	3	1	75	10	1	220	6	4	37.13	49	1
11	28	9	6	3	1	75	10	1	220	6	4	259.23	49	6
11	28	9	6	3	1	75	10	1	221	16	9	10.91	49	1
11	28	9	6	3	1	75	10	1	221	16	9	257.64	49	6
11	28	9	6	3	1	75	10	1	222	6	9	560.03	49	12
11	28	9	6	3	1	75	10	1	222	6	9	760.41	49	16
11	28	9	6	3	1	75	10	1	223	6	10	11.13	49	1
11	28	9	6	3	1	75	10	1	223	6	10	791.02	49	16
11	28	9	6	3	1	75	10	1	224	6	1	13.78	49	1
11	28	9	6	3	1	75	10	1	224	6	1	260.32	49	6
11	28	9	6	3	1	75	10	1	224	6	1	682.42	49	14
11	28	9	6	3	1	75	10	1	225	16	3	10.95	49	1
11	28	9	6	3	1	75	10	1	226	6	2	511.33	49	11
11	28	9	6	3	1	75	10	1	226	6	2	758.12	49	16
11	28	9	6	3	1	75	10	1	227	6	7	8.86	49	1
11	28	9	6	3	1	75	10	1	228	6	5	285.75	49	6
11	28	9	6	3	1	75	10	1	228	6	5	507.28	49	11
11	28	9	6	3	1	75	10	1	229	6	8	526.41	49	11
11	28	9	6	3	1	75	10	1	229	6	8	758.62	49	16
11	28	9	6	3	1	75	10	1	230	6	3	7.66	49	1
11	28	9	6	3	1	75	10	1	231	6	6	561.14	49	12
11	28	9	6	3	1	75	10	1	232	16	6	317.61	49	7
11	28	9	6	3	1	75	10	1	232	16	6	557.71	49	12
11	28	9	6	3	1	75	10	1	233	16	7	444.43	49	9
11	28	9	6	3	1	75	10	1	233	16	7	659.28	49	14
11	28	9	6	3	1	75	10	1	234	6	5	0	-1	16
11	28	9	6	3	1	75	10	1	235	6	7	142.76	49	3
11	28	9	6	3	1	75	10	1	235	6	7	361.06	49	8
11	28	9	6	3	1	75	10	1	236	16	8	220.59	49	5
11	28	9	6	3	1	75	10	1	236	16	8	460.81	49	10
11	28	9	6	3	1	75	10	1	237	6	1	76.15	49	2
11	28	9	6	3	1	75	10	1	238	6	2	73.43	49	2
11	28	9	6	3	1	75	10	1	238	6	2	309.94	49	7
11	28	9	6	3	1	75	10	1	239	6	8	38.82	49	1
11	28	9	6	3	1	75	10	1	239	6	8	259.66	49	6
11	28	9	6	3	1	75	10	1	239	6	8	766.38	49	16
11	28	9	6	3	1	75	10	1	240	6	4	13.13	49	1
11	28	9	6	3	1	75	10	1	240	6	4	214.05	49	5
11	28	9	6	3	1	75	10	1	240	6	4	719.08	49	15
11	28	9	6	3	1	75	10	1	241	6	9	13.69	49	1
11	28	9	6	3	1	75	10	1	241	6	9	772.81	49	16
11	28	9	6	3	1	75	10	1	242	6	10	8.11	49	1
11	28	9	6	3	1	75	10	1	242	6	10	257.29	49	6
11	28	9	6	3	1	75	10	1	243	6	3	89.69	49	2
11	28	9	6	3	1	75	10	1	243	6	3	308.55	49	7
11	28	9	6	3	1	75	10	1	243	6	3	510.47	49	11
11	28	9	6	3	1	75	10	1	244	16	5	316.6	49	7
11	28	9	6	3	1	75	10	1	244	16	5	559.84	49	12
11	28	9	6	3	1	75	10	1	245	6	7	633.55	49	13
11	28	9	6	3	1	75	10	1	246	6	10	11.06	49	1
11	28	9	6	3	1	75	10	1	247	6	4	182.71	49	4
11	28	9	6	3	1	75	10	1	247	6	4	412.71	49	9
11	28	9	6	3	1	75	10	1	248	6	2	260.14	49	6
11	28	9	6	3	1	75	10	1	248	6	2	512.14	49	11
11	28	9	6	3	1	75	10	1	249	6	5	262.88	49	6
11	28	9	6	3	1	75	10	1	250	16	2	366.94	49	8
11	28	9	6	3	1	75	10	1	250	16	2	608.79	49	13
11	28	9	6	3	1	75	10	1	251	16	1	0	-1	16
11	28	9	6	3	1	75	10	1	252	6	1	0	-1	16
11	28	9	6	3	1	75	10	1	253	16	4	168.37	49	4
11	28	9	6	3	1	75	10	1	253	16	4	410.08	49	9
11	28	9	6	3	1	75	10	1	254	6	9	676.37	49	14
11	28	9	6	3	1	75	10	1	255	6	6	8.84	49	1
11	28	9	6	3	1	75	10	1	256	6	3	108.71	49	3
11	28	9	6	3	1	75	10	1	256	6	3	356.94	49	8
11	28	9	6	3	1	75	10	1	257	6	8	242.91	49	5
11	28	9	6	3	1	75	10	1	257	6	8	460.62	49	10
11	28	9	6	3	1	75	10	1	257	6	8	715.94	49	15
11	28	9	6	3	1	75	10	1	258	6	6	10.41	49	1
11	28	9	6	3	1	75	10	1	258	6	6	742.49	49	15
11	28	9	6	3	1	75	10	1	259	6	2	13.75	49	1
11	28	9	6	3	1	75	10	1	259	6	2	262.06	49	6
11	28	9	6	3	1	75	10	1	259	6	2	760.2	49	16
11	28	9	6	3	1	75	10	1	260	6	7	13.17	49	1
11	28	9	6	3	1	75	10	1	260	6	7	262.94	49	6
11	28	9	6	3	1	75	10	1	260	6	7	784.66	49	16
11	28	9	6	3	1	75	10	1	261	16	9	11.88	49	1
11	28	9	6	3	1	75	10	1	261	16	9	212.22	49	5
11	28	9	6	3	1	75	10	1	262	6	8	9.88	49	1
11	28	9	6	3	1	75	10	1	262	6	8	261.28	49	6
11	28	9	6	3	1	75	10	1	263	6	5	371.76	49	8
11	28	9	6	3	1	75	10	1	263	6	5	607.97	49	13
11	28	9	6	3	1	75	10	1	264	6	9	126.8	49	3
11	28	9	6	3	1	75	10	1	264	6	9	357.14	49	8
11	28	9	6	3	1	75	10	1	265	16	10	110.28	49	3
11	28	9	6	3	1	75	10	1	266	6	1	169.17	49	4
11	28	9	6	3	1	75	10	1	266	6	1	407.01	49	9
11	28	9	6	3	1	75	10	1	267	6	4	89.01	49	2
11	28	9	6	3	1	75	10	1	267	6	4	310.07	49	7
11	28	9	6	3	1	75	10	1	268	6	10	109.65	49	3
11	28	9	6	3	1	75	10	1	268	6	10	359.65	49	8
11	28	9	6	3	1	75	10	1	268	6	10	758.02	49	16
11	28	9	6	3	1	75	10	1	269	16	3	8.79	49	1
11	28	9	6	3	1	75	10	1	269	16	3	209.3	49	5
11	28	9	6	3	1	75	10	1	270	6	3	732.96	49	15
11	28	9	6	3	1	75	10	1	271	16	7	10.23	49	1
11	28	9	6	3	1	75	10	1	272	6	6	0	-1	16
11	28	9	6	3	1	75	10	1	273	16	1	112.93	49	3
11	28	9	6	3	1	75	10	1	273	16	1	360.13	49	8
11	28	9	6	3	1	75	10	1	274	6	8	61.24	49	2
11	28	9	6	3	1	75	10	1	274	6	8	310.7	49	7
11	28	9	6	3	1	75	10	1	275	6	4	41.05	49	1
11	28	9	6	3	1	75	10	1	275	6	4	258.59	49	6
11	28	9	6	3	1	75	10	1	276	16	10	36.18	49	1
11	28	9	6	3	1	75	10	1	276	16	10	258.53	49	6
11	28	9	6	3	1	75	10	1	277	6	10	107.67	49	3
11	28	9	6	3	1	75	10	1	277	6	10	307.81	49	7
11	28	9	6	3	1	75	10	1	278	6	2	84.76	49	2
11	28	9	6	3	1	75	10	1	278	6	2	307.35	49	7
11	28	9	6	3	1	75	10	1	279	6	9	41.89	49	1
11	28	9	6	3	1	75	10	1	279	6	9	257.3	49	6
11	28	9	6	3	1	75	10	1	279	6	9	790.62	49	16
11	28	9	6	3	1	75	10	1	280	6	1	9.12	49	1
11	28	9	6	3	1	75	10	1	280	6	1	210.38	49	5
11	28	9	6	3	1	75	10	1	281	6	5	92.66	49	2
11	28	9	6	3	1	75	10	1	281	6	5	309.99	49	7
11	28	9	6	3	1	75	10	1	282	6	7	108.37	49	3
11	28	9	6	3	1	75	10	1	282	6	7	309.43	49	7
11	28	9	6	3	1	75	10	1	283	6	3	60.89	49	2
11	28	9	6	3	1	75	10	1	283	6	3	262.59	49	6
11	28	9	6	3	1	75	10	1	284	6	2	90.76	49	2
11	28	9	6	3	1	75	10	1	284	6	2	312.45	49	7
11	28	9	6	3	1	75	10	1	285	6	10	124.13	49	3
11	28	9	6	3	1	75	10	1	285	6	10	360.74	49	8
11	28	9	6	3	1	75	10	1	286	6	9	27.65	49	1
11	28	9	6	3	1	75	10	1	286	6	9	260.62	49	6
11	28	9	6	3	1	75	10	1	287	6	8	160.47	49	4
11	28	9	6	3	1	75	10	1	287	6	8	410.93	49	9
11	28	9	6	3	1	75	10	1	288	16	9	122.82	49	3
11	28	9	6	3	1	75	10	1	288	16	9	359.81	49	8
11	28	9	6	3	1	75	10	1	289	6	5	728.58	49	15
11	28	9	6	3	1	75	10	1	290	6	1	7.97	49	1
11	28	9	6	3	1	75	10	1	290	6	1	662.37	49	14
11	28	9	6	3	1	75	10	1	291	6	7	8.38	49	1
11	28	9	6	3	1	75	10	1	292	16	2	123.52	49	3
11	28	9	6	3	1	75	10	1	292	16	2	359.21	49	8
11	28	9	6	3	1	75	10	1	293	6	3	494.69	49	10
11	28	9	6	3	1	75	10	1	293	6	3	707.33	49	15
11	28	9	6	3	1	75	10	1	294	6	6	9.65	49	1
11	28	9	6	3	1	75	10	1	295	6	4	91.6	49	2
11	28	9	6	3	1	75	10	1	295	6	4	310.34	49	7
11	28	9	6	3	1	75	10	1	296	16	5	13.31	49	1
11	28	9	6	3	1	75	10	1	296	16	5	259.98	49	6
11	28	9	6	3	1	75	10	1	297	16	4	27.69	49	1
11	28	9	6	3	1	75	10	1	297	16	4	260.45	49	6
11	28	9	6	3	1	75	10	1	298	6	2	641.55	49	13
11	28	9	6	3	1	75	10	1	299	6	9	11.28	49	1
11	28	9	6	3	1	75	10	1	300	6	10	271.98	49	6
11	28	9	6	3	1	75	10	1	300	6	10	507.33	49	11
11	28	9	6	3	1	75	10	1	301	16	6	0	-1	16
11	28	9	6	3	1	75	10	1	302	6	1	336.96	49	7
11	28	9	6	3	1	75	10	1	302	6	1	557.21	49	12
11	28	9	6	3	1	75	10	1	303	6	8	357.71	49	8
11	28	9	6	3	1	75	10	1	303	6	8	560.06	49	12
11	28	9	6	3	1	75	10	1	304	16	3	383.74	49	8
11	28	9	6	3	1	75	10	1	304	16	3	609.68	49	13
11	28	9	6	3	1	75	10	1	305	6	6	345.01	49	7
11	28	9	6	3	1	75	10	1	305	6	6	558.66	49	12
11	28	9	6	3	1	75	10	1	306	16	8	409.09	49	9
11	28	9	6	3	1	75	10	1	306	16	8	659.4	49	14
11	28	9	6	3	1	75	10	1	307	6	7	710.21	49	15
11	28	9	6	3	1	75	10	1	308	6	3	10.71	49	1
11	28	9	6	3	1	75	10	1	308	6	3	660.16	49	14
11	28	9	6	3	1	75	10	1	309	16	7	10.86	49	1
11	28	9	6	3	1	75	10	1	309	16	7	584.52	49	12
11	28	9	6	3	1	75	10	1	310	16	1	10.71	49	1
11	28	9	6	3	1	75	10	1	310	16	1	770.79	49	16
11	28	9	6	3	1	75	10	1	311	6	5	9.55	49	1
11	28	9	6	3	1	75	10	1	312	6	4	158.29	49	4
11	28	9	6	3	1	75	10	1	312	6	4	408.25	49	9
11	28	9	6	3	1	75	10	1	312	6	4	658.08	49	14
11	28	9	6	3	1	75	10	1	313	6	7	8.05	49	1
11	28	9	6	3	1	75	10	1	313	6	7	693.78	49	14
11	28	9	6	3	1	75	10	1	314	16	9	7.62	49	1
11	28	9	6	3	1	75	10	1	315	6	9	558.39	49	12
11	28	9	6	3	1	75	10	1	315	6	9	760.06	49	16
11	28	9	6	3	1	75	10	1	316	16	4	9.41	49	1
11	28	9	6	3	1	75	10	1	316	16	4	731.91	49	15
11	28	9	6	3	1	75	10	1	317	6	2	10.69	49	1
11	28	9	6	3	1	75	10	1	318	6	4	164.84	49	4
11	28	9	6	3	1	75	10	1	318	6	4	412.05	49	9
11	28	9	6	3	1	75	10	1	319	16	5	120.87	49	3
11	28	9	6	3	1	75	10	1	319	16	5	361.96	49	8
11	28	9	6	3	1	75	10	1	320	6	5	209.55	49	5
11	28	9	6	3	1	75	10	1	320	6	5	458.98	49	10
11	28	9	6	3	1	75	10	1	321	6	1	9.53	49	1
11	28	9	6	3	1	75	10	1	321	6	1	258.31	49	6
11	28	9	6	3	1	75	10	1	322	6	10	210.39	49	5
11	28	9	6	3	1	75	10	1	322	6	10	460.06	49	10
11	28	9	6	3	1	75	10	1	323	16	10	219.11	49	5
11	28	9	6	3	1	75	10	1	323	16	10	459.89	49	10
11	28	9	6	3	1	75	10	1	323	16	10	780.79	49	16
11	28	9	6	3	1	75	10	1	324	16	2	7.97	49	1
11	28	9	6	3	1	75	10	1	324	16	2	209.56	49	5
11	28	9	6	3	1	75	10	1	325	6	6	174.1	49	4
11	28	9	6	3	1	75	10	1	325	6	6	408.44	49	9
11	28	9	6	3	1	75	10	1	326	6	3	236.81	49	5
11	28	9	6	3	1	75	10	1	326	6	3	460.36	49	10
11	28	9	6	3	1	75	10	1	327	6	8	292.98	49	6
11	28	9	6	3	1	75	10	1	327	6	8	510.21	49	11
11	28	9	6	3	1	75	10	1	328	6	5	286.4	49	6
11	28	9	6	3	1	75	10	1	328	6	5	510.55	49	11
11	28	9	6	3	1	75	10	1	329	6	10	110.06	49	3
11	28	9	6	3	1	75	10	1	329	6	10	362.24	49	8
11	28	9	6	3	1	75	10	1	329	6	10	778.14	49	16
11	28	9	6	3	1	75	10	1	330	6	4	34.31	49	1
11	28	9	6	3	1	75	10	1	330	6	4	262.74	49	6
11	28	9	6	3	1	75	10	1	330	6	4	723.77	49	15
11	28	9	6	3	1	75	10	1	331	6	9	11.28	49	1
11	28	9	6	3	1	75	10	1	331	6	9	212.32	49	5
11	28	9	6	3	1	75	10	1	332	6	2	10.36	49	1
11	28	9	6	3	1	75	10	1	332	6	2	212.06	49	5
11	28	9	6	3	1	75	10	1	333	6	8	244.37	49	5
11	28	9	6	3	1	75	10	1	333	6	8	458.72	49	10
11	28	9	6	3	1	75	10	1	334	6	7	258.4	49	6
11	28	9	6	3	1	75	10	1	334	6	7	459.86	49	10
11	28	9	6	3	1	75	10	1	335	6	3	262.32	49	6
11	28	9	6	3	1	75	10	1	335	6	3	507.51	49	11
11	28	9	6	3	1	75	10	1	336	6	6	407.44	49	9
11	28	9	6	3	1	75	10	1	336	6	6	657.92	49	14
11	28	9	6	3	1	75	10	1	337	6	1	8.14	49	1
11	28	9	6	3	1	75	10	1	338	6	7	226.89	49	5
11	28	9	6	3	1	75	10	1	338	6	7	457.25	49	10
11	28	9	6	3	1	75	10	1	339	6	9	707.45	49	15
11	28	9	6	3	1	75	10	1	340	6	4	25.26	49	1
11	28	9	6	3	1	75	10	1	340	6	4	781.19	49	16
11	28	9	6	3	1	75	10	1	341	6	10	11.05	49	1
11	28	9	6	3	1	75	10	1	341	6	10	259.91	49	6
11	28	9	6	3	1	75	10	1	342	6	5	128.49	49	3
11	28	9	6	3	1	75	10	1	342	6	5	359.78	49	8
11	28	9	6	3	1	75	10	1	343	16	6	66.02	49	2
11	28	9	6	3	1	75	10	1	343	16	6	313.19	49	7
11	28	9	6	3	1	75	10	1	344	16	3	37.39	49	1
11	28	9	6	3	1	75	10	1	344	16	3	263.71	49	6
11	28	9	6	3	1	75	10	1	345	16	8	0	-1	16
11	28	9	6	3	1	75	10	1	346	6	2	775.87	49	16
11	28	9	6	3	1	75	10	1	347	16	2	8.69	49	1
11	28	9	6	3	1	75	10	1	347	16	2	209.22	49	5
11	28	9	6	3	1	75	10	1	347	16	2	707.94	49	15
11	28	9	6	3	1	75	10	1	348	6	1	8.13	49	1
11	28	9	6	3	1	75	10	1	348	6	1	257.15	49	6
11	28	9	6	3	1	75	10	1	349	6	3	410.3	49	9
11	28	9	6	3	1	75	10	1	349	6	3	659.92	49	14
11	28	9	6	3	1	75	10	1	350	6	6	470.96	49	10
11	28	9	6	3	1	75	10	1	350	6	6	710.05	49	15
11	28	9	6	3	1	75	10	1	351	6	8	8.64	49	1
11	28	9	6	3	1	75	10	1	351	6	8	467.87	49	10
11	28	9	6	3	1	75	10	1	351	6	8	707.8	49	15
11	28	9	6	3	1	75	10	1	352	6	2	763.42	49	16
11	28	9	6	3	1	75	10	1	353	6	9	10.77	49	1
11	28	9	6	3	1	75	10	1	353	6	9	780	49	16
11	28	9	6	3	1	75	10	1	354	6	10	10.66	49	1
11	28	9	6	3	1	75	10	1	354	6	10	212.51	49	5
11	28	9	6	3	1	75	10	1	355	6	7	62.57	49	2
11	28	9	6	3	1	75	10	1	355	6	7	311.99	49	7
11	28	9	6	3	1	75	10	1	356	16	9	81.07	49	2
11	28	9	6	3	1	75	10	1	356	16	9	311.76	49	7
11	28	9	6	3	1	75	10	1	357	6	1	510.79	49	11
11	28	9	6	3	1	75	10	1	357	6	1	757.99	49	16
11	28	9	6	3	1	75	10	1	358	6	6	9.54	49	1
11	28	9	6	3	1	75	10	1	358	6	6	730.78	49	15
11	28	9	6	3	1	75	10	1	359	6	5	8.14	49	1
11	28	9	6	3	1	75	10	1	359	6	5	210.23	49	5
11	28	9	6	3	1	75	10	1	359	6	5	743.62	49	15
11	28	9	6	3	1	75	10	1	360	6	8	8.83	49	1
11	28	9	6	3	1	75	10	1	360	6	8	209.72	49	5
11	28	9	6	3	1	75	10	1	360	6	8	757.6	49	16
11	28	9	6	3	1	75	10	1	361	6	3	8.5	49	1
11	28	9	6	3	1	75	10	1	361	6	3	209.18	49	5
11	28	9	6	3	1	75	10	1	362	6	4	21.09	49	1
11	28	9	6	3	1	75	10	1	362	6	4	257.45	49	6
11	28	9	6	3	1	75	10	1	363	6	5	327.66	49	7
11	28	9	6	3	1	75	10	1	363	6	5	560.18	49	12
11	28	9	6	3	1	75	10	1	364	6	2	175.95	49	4
11	28	9	6	3	1	75	10	1	364	6	2	410.49	49	9
11	28	9	6	3	1	75	10	1	365	16	10	165.71	49	4
11	28	9	6	3	1	75	10	1	365	16	10	410.8	49	9
11	28	9	6	3	1	75	10	1	366	6	10	610.42	49	13
11	28	9	6	3	1	75	10	1	367	6	9	10.88	49	1
11	28	9	6	3	1	75	10	1	367	6	9	630.81	49	13
11	28	9	6	3	1	75	10	1	368	6	4	11.23	49	1
11	28	9	6	3	1	75	10	1	369	6	3	9.89	49	1
11	28	9	6	3	1	75	10	1	369	6	3	260.89	49	6
11	28	9	6	3	1	75	10	1	370	6	8	414.3	49	9
11	28	9	6	3	1	75	10	1	370	6	8	659.97	49	14
11	28	9	6	3	1	75	10	1	371	6	7	233.66	49	5
11	28	9	6	3	1	75	10	1	371	6	7	457.44	49	10
11	28	9	6	3	1	75	10	1	372	6	6	695.35	49	14
11	28	9	6	3	1	75	10	1	373	6	1	8.63	49	1
11	28	9	6	3	1	75	10	1	373	6	1	210.13	49	5
11	28	9	6	3	1	75	10	1	374	6	2	290.94	49	6
11	28	9	6	3	1	75	10	1	374	6	2	509.57	49	11
11	28	9	6	3	1	75	10	1	374	6	2	785.77	49	16
11	28	9	6	3	1	75	10	1	375	6	10	627.77	49	13
11	28	9	6	3	1	75	10	1	376	6	9	8.24	49	1
11	28	9	6	3	1	75	10	1	376	6	9	743.18	49	15
11	28	9	6	3	1	75	10	1	377	6	7	10.35	49	1
11	28	9	6	3	1	75	10	1	377	6	7	261.26	49	6
11	28	9	6	3	1	75	10	1	378	16	7	75.21	49	2
11	28	9	6	3	1	75	10	1	378	16	7	311.5	49	7
11	28	9	6	3	1	75	10	1	379	16	3	0	-1	16
11	28	9	6	3	1	75	10	1	380	16	5	0	-1	16
11	28	9	6	3	1	75	10	1	381	6	5	663.02	49	14
11	28	9	6	3	1	75	10	1	382	16	6	9.51	49	1
11	28	9	6	3	1	75	10	1	382	16	6	210.82	49	5
11	28	9	6	3	1	75	10	1	383	6	8	168.37	49	4
11	28	9	6	3	1	75	10	1	383	6	8	409.71	49	9
11	28	9	6	3	1	75	10	1	384	6	1	0	-1	16
11	28	9	6	3	1	75	10	1	385	6	6	663.52	49	14
11	28	9	6	3	1	75	10	1	386	6	3	7.39	49	1
11	28	9	6	3	1	75	10	1	386	6	3	560.08	49	12
11	28	9	6	3	1	75	10	1	387	16	8	8.21	49	1
11	28	9	6	3	1	75	10	1	388	6	4	7.96	49	1
11	28	9	6	3	1	75	10	1	388	6	4	257.45	49	6
11	28	9	6	3	1	75	10	1	389	6	7	25.77	49	1
11	28	9	6	3	1	75	10	1	389	6	7	259.17	49	6
11	28	9	6	3	1	75	10	1	390	6	1	18.43	49	1
11	28	9	6	3	1	75	10	1	390	6	1	259.27	49	6
11	28	9	6	3	1	75	10	1	391	6	2	110.24	49	3
11	28	9	6	3	1	75	10	1	391	6	2	359.81	49	8
11	28	9	6	3	1	75	10	1	392	6	5	210.3	49	5
11	28	9	6	3	1	75	10	1	392	6	5	411.89	49	9
11	28	9	6	3	1	75	10	1	392	6	5	761.95	49	16
11	28	9	6	3	1	75	10	1	393	16	1	10.64	49	1
11	28	9	6	3	1	75	10	1	393	16	1	212.38	49	5
11	28	9	6	3	1	75	10	1	394	6	10	9.41	49	1
11	28	9	6	3	1	75	10	1	394	6	10	209.47	49	5
11	28	9	6	3	1	75	10	1	395	16	4	113.67	49	3
11	28	9	6	3	1	75	10	1	395	16	4	358.22	49	8
11	28	9	6	3	1	75	10	1	396	6	4	760.1	49	16
11	28	9	6	3	1	75	10	1	397	6	9	8.25	49	1
11	28	9	6	3	1	75	10	1	397	6	9	211.08	49	5
11	28	9	6	3	1	75	10	1	397	6	9	690.08	49	14
11	28	9	6	3	1	75	10	1	398	6	6	8.25	49	1
11	28	9	6	3	1	75	10	1	398	6	6	670.03	49	14
11	28	9	6	3	1	75	10	1	399	6	3	11.03	49	1
11	28	9	6	3	1	75	10	1	399	6	3	759.82	49	16
11	28	9	6	3	1	75	10	1	400	6	8	8.79	49	1
11	28	9	6	3	1	75	10	1	400	6	8	210.18	49	5
11	28	9	6	3	1	75	10	1	401	16	5	190.26	49	4
11	28	9	6	3	1	75	10	1	401	16	5	410.77	49	9
11	28	9	6	3	1	75	10	1	402	6	6	510.93	49	11
11	28	9	6	3	1	75	10	1	402	6	6	763.08	49	16
11	28	9	6	3	1	75	10	1	403	16	9	0	-1	16
11	28	9	6	3	1	75	10	1	404	6	10	118.73	49	3
11	28	9	6	3	1	75	10	1	404	6	10	360.69	49	8
11	28	9	6	3	1	75	10	1	404	6	10	760.71	49	16
11	28	9	6	3	1	75	10	1	405	6	9	11.93	49	1
11	28	9	6	3	1	75	10	1	405	6	9	261.49	49	6
11	28	9	6	3	1	75	10	1	406	16	2	63.28	49	2
11	28	9	6	3	1	75	10	1	406	16	2	310.95	49	7
11	28	9	6	3	1	75	10	1	407	16	10	759.09	49	16
11	28	9	6	3	1	75	10	1	408	6	5	7.75	49	1
11	28	9	6	3	1	75	10	1	408	6	5	258.74	49	6
11	28	9	6	3	1	75	10	1	408	6	5	507.17	49	11
11	28	9	6	3	1	75	10	1	408	6	5	793.49	49	16
11	28	9	6	3	1	75	10	1	409	16	4	8.02	49	1
11	28	9	6	3	1	75	10	1	409	16	4	208.73	49	5
11	28	9	6	3	1	75	10	1	410	16	6	360.08	49	8
11	28	9	6	3	1	75	10	1	410	16	6	560.33	49	12
11	28	9	6	3	1	75	10	1	411	6	7	0	-1	16
11	28	9	6	3	1	75	10	1	412	16	7	159.76	49	4
11	28	9	6	3	1	75	10	1	412	16	7	409.41	49	9
11	28	9	6	3	1	75	10	1	413	6	4	408.29	49	9
11	28	9	6	3	1	75	10	1	413	6	4	658.23	49	14
11	28	9	6	3	1	75	10	1	414	16	8	9.06	49	1
11	28	9	6	3	1	75	10	1	415	6	2	174.77	49	4
11	28	9	6	3	1	75	10	1	415	6	2	409.99	49	9
11	28	9	6	3	1	75	10	1	416	6	1	159.89	49	4
11	28	9	6	3	1	75	10	1	416	6	1	410.65	49	9
11	28	9	6	3	1	75	10	1	417	6	8	209.35	49	5
11	28	9	6	3	1	75	10	1	417	6	8	410.81	49	9
11	28	9	6	3	1	75	10	1	417	6	8	611.47	49	13
11	28	9	6	3	1	75	10	1	418	6	3	409.11	49	9
11	28	9	6	3	1	75	10	1	418	6	3	610.24	49	13
11	28	9	6	3	1	75	10	1	419	6	2	0	-1	16
11	28	9	6	3	1	75	10	1	420	6	10	159.41	49	4
11	28	9	6	3	1	75	10	1	420	6	10	408.23	49	9
11	28	9	6	3	1	75	10	1	421	16	3	138.85	49	3
11	28	9	6	3	1	75	10	1	421	16	3	357.29	49	8
11	28	9	6	3	1	75	10	1	422	6	9	163.38	49	4
11	28	9	6	3	1	75	10	1	422	6	9	407.54	49	9
11	28	9	6	3	1	75	10	1	423	16	1	362.25	49	8
11	28	9	6	3	1	75	10	1	423	16	1	607.63	49	13
11	28	9	6	3	1	75	10	1	424	6	7	8.55	49	1
11	28	9	6	3	1	75	10	1	424	6	7	768.21	49	16
11	28	9	6	3	1	75	10	1	425	6	6	9.42	49	1
11	28	9	6	3	1	75	10	1	425	6	6	258.53	49	6
11	28	9	6	3	1	75	10	1	426	16	6	0	-1	16
11	28	9	6	3	1	75	10	1	427	6	5	610.65	49	13
11	28	9	6	3	1	75	10	1	428	16	7	10.54	49	1
11	28	9	6	3	1	75	10	1	428	16	7	309.82	49	7
11	28	9	6	3	1	75	10	1	428	16	7	510.03	49	11
11	28	9	6	3	1	75	10	1	428	16	7	710.24	49	15
11	28	9	6	3	1	75	10	1	429	6	8	590.6	49	12
11	28	9	6	3	1	75	10	1	430	6	1	13.44	49	1
11	28	9	6	3	1	75	10	1	430	6	1	663.97	49	14
11	28	9	6	3	1	75	10	1	431	16	1	12.07	49	1
11	28	9	6	3	1	75	10	1	432	6	3	710.86	49	15
11	28	9	6	3	1	75	10	1	433	6	4	10.95	49	1
11	28	9	6	3	1	75	10	1	433	6	4	259.92	49	6
11	28	9	6	3	1	75	10	1	434	6	6	46.84	49	1
11	28	9	6	3	1	75	10	1	434	6	6	259.24	49	6
11	28	9	6	3	1	75	10	1	435	6	1	62.53	49	2
11	28	9	6	3	1	75	10	1	435	6	1	307.35	49	7
11	28	9	6	3	1	75	10	1	436	6	4	15.48	49	1
11	28	9	6	3	1	75	10	1	436	6	4	260.04	49	6
11	28	9	6	3	1	75	10	1	436	6	4	760.35	49	16
11	28	9	6	3	1	75	10	1	437	6	10	11.41	49	1
11	28	9	6	3	1	75	10	1	437	6	10	259.89	49	6
11	28	9	6	3	1	75	10	1	437	6	10	707.93	49	15
11	28	9	6	3	1	75	10	1	438	6	5	11.91	49	1
11	28	9	6	3	1	75	10	1	438	6	5	679.83	49	14
11	28	9	6	3	1	75	10	1	439	16	10	10.39	49	1
11	28	9	6	3	1	75	10	1	440	6	7	61.26	49	2
11	28	9	6	3	1	75	10	1	440	6	7	312.21	49	7
11	28	9	6	3	1	75	10	1	441	6	2	385.14	49	8
11	28	9	6	3	1	75	10	1	441	6	2	610.55	49	13
11	28	9	6	3	1	75	10	1	442	6	9	224.18	49	5
11	28	9	6	3	1	75	10	1	442	6	9	459.07	49	10
11	28	9	6	3	1	75	10	1	443	6	8	108.84	49	3
11	28	9	6	3	1	75	10	1	443	6	8	358.32	49	8
11	28	9	6	3	1	75	10	1	444	6	3	178.13	49	4
11	28	9	6	3	1	75	10	1	444	6	3	410.41	49	9
11	28	9	6	3	1	75	10	1	445	6	5	89.22	49	2
11	28	9	6	3	1	75	10	1	445	6	5	307.99	49	7
11	28	9	6	3	1	75	10	1	445	6	5	707.52	49	15
11	28	9	6	3	1	75	10	1	446	6	4	8.69	49	1
11	28	9	6	3	1	75	10	1	446	6	4	209.63	49	5
11	28	9	6	3	1	75	10	1	446	6	4	626.33	49	13
11	28	9	6	3	1	75	10	1	447	6	9	8.56	49	1
11	28	9	6	3	1	75	10	1	448	6	2	79.7	49	2
11	28	9	6	3	1	75	10	1	448	6	2	307.37	49	7
11	28	9	6	3	1	75	10	1	449	6	10	145.12	49	3
11	28	9	6	3	1	75	10	1	449	6	10	360.16	49	8
11	28	9	6	3	1	75	10	1	450	6	8	14.28	49	1
11	28	9	6	3	1	75	10	1	450	6	8	260.44	49	6
11	28	9	6	3	1	75	10	1	450	6	8	660.68	49	14
