SubjectNum	Age	Gender	PressedTask	Block Type	Block Repeat Num	Response Rate	Onset	Block	Trial	ImgType	ImgNum	RT	PressedC	FrameC
19	41	16	6	1	1	75	10	1	1	6	5	567.08	49	10
19	41	16	6	1	1	75	10	1	2	6	10	367.56	49	8
19	41	16	6	1	1	75	10	1	2	6	10	611.97	49	13
19	41	16	6	1	1	75	10	1	3	6	4	510.47	49	11
19	41	16	6	1	1	75	10	1	4	6	9	610.9	49	13
19	41	16	6	1	1	75	10	1	5	16	7	0	-1	16
19	41	16	6	1	1	75	10	1	6	6	2	0	-1	16
19	41	16	6	1	1	75	10	1	7	6	3	17.69	49	1
19	41	16	6	1	1	75	10	1	8	16	9	67.93	49	2
19	41	16	6	1	1	75	10	1	9	6	8	577.92	49	12
19	41	16	6	1	1	75	10	1	10	16	2	0	-1	16
19	41	16	6	1	1	75	10	1	11	6	7	764.65	49	16
19	41	16	6	1	1	75	10	1	12	6	6	8.75	49	1
19	41	16	6	1	1	75	10	1	13	6	1	17.28	49	1
19	41	16	6	1	1	75	10	1	14	16	5	360.01	49	8
19	41	16	6	1	1	75	10	1	15	6	5	611.22	49	13
19	41	16	6	1	1	75	10	1	16	6	2	0	-1	16
19	41	16	6	1	1	75	10	1	17	6	4	174.82	49	4
19	41	16	6	1	1	75	10	1	18	6	9	25.05	49	1
19	41	16	6	1	1	75	10	1	19	6	10	334.95	49	7
19	41	16	6	1	1	75	10	1	20	16	1	707.29	49	15
19	41	16	6	1	1	75	10	1	21	6	3	10.38	49	1
19	41	16	6	1	1	75	10	1	22	16	10	69.79	49	2
19	41	16	6	1	1	75	10	1	23	6	7	714.8	49	15
19	41	16	6	1	1	75	10	1	24	16	4	7.25	49	1
19	41	16	6	1	1	75	10	1	25	6	8	722.05	49	15
19	41	16	6	1	1	75	10	1	26	16	3	7.91	49	1
19	41	16	6	1	1	75	10	1	27	6	6	717.02	49	15
19	41	16	6	1	1	75	10	1	28	6	1	10.69	49	1
19	41	16	6	1	1	75	10	1	29	6	6	320.49	49	7
19	41	16	6	1	1	75	10	1	30	6	1	90.2	49	2
19	41	16	6	1	1	75	10	1	31	16	6	227.84	49	5
19	41	16	6	1	1	75	10	1	32	6	9	618.51	49	13
19	41	16	6	1	1	75	10	1	33	6	8	717.15	49	15
19	41	16	6	1	1	75	10	1	34	6	10	7.92	49	1
19	41	16	6	1	1	75	10	1	35	16	8	107.58	49	3
19	41	16	6	1	1	75	10	1	36	6	7	0	-1	16
19	41	16	6	1	1	75	10	1	37	6	4	127.13	49	3
19	41	16	6	1	1	75	10	1	37	6	4	794.41	49	16
19	41	16	6	1	1	75	10	1	38	6	2	10.7	49	1
19	41	16	6	1	1	75	10	1	39	6	5	260.2	49	6
19	41	16	6	1	1	75	10	1	40	16	7	131.52	49	3
19	41	16	6	1	1	75	10	1	41	16	4	783.44	49	16
19	41	16	6	1	1	75	10	1	42	6	3	10.66	49	1
19	41	16	6	1	1	75	10	1	43	6	7	113.33	49	3
19	41	16	6	1	1	75	10	1	44	6	5	61.94	49	2
19	41	16	6	1	1	75	10	1	45	6	2	410.03	49	9
19	41	16	6	1	1	75	10	1	46	6	1	267.65	49	6
19	41	16	6	1	1	75	10	1	47	6	9	439.15	49	9
19	41	16	6	1	1	75	10	1	48	6	4	729.08	49	15
19	41	16	6	1	1	75	10	1	49	16	5	10.04	49	1
19	41	16	6	1	1	75	10	1	50	16	1	73.18	49	2
19	41	16	6	1	1	75	10	1	51	6	10	688.36	49	14
19	41	16	6	1	1	75	10	1	52	6	6	7.74	49	1
19	41	16	6	1	1	75	10	1	52	6	6	707.25	49	15
19	41	16	6	1	1	75	10	1	53	6	3	11.07	49	1
19	41	16	6	1	1	75	10	1	54	6	8	13.69	49	1
19	41	16	6	1	1	75	10	1	55	16	2	109.76	49	3
19	41	16	6	1	1	75	10	1	56	6	2	235.49	49	5
19	41	16	6	1	1	75	10	1	57	6	10	90.09	49	2
19	41	16	6	1	1	75	10	1	58	6	9	112.41	49	3
19	41	16	6	1	1	75	10	1	59	16	10	109.44	49	3
19	41	16	6	1	1	75	10	1	60	6	1	523.25	49	11
19	41	16	6	1	1	75	10	1	61	6	8	773.61	49	16
19	41	16	6	1	1	75	10	1	62	6	3	7.89	49	1
19	41	16	6	1	1	75	10	1	63	6	6	93.43	49	2
19	41	16	6	1	1	75	10	1	64	6	5	162.1	49	4
19	41	16	6	1	1	75	10	1	65	6	7	157.49	49	4
19	41	16	6	1	1	75	10	1	66	6	4	181.89	49	4
19	41	16	6	1	1	75	10	1	67	6	7	159.56	49	4
19	41	16	6	1	1	75	10	1	68	6	4	82.55	49	2
19	41	16	6	1	1	75	10	1	69	6	10	210.92	49	5
19	41	16	6	1	1	75	10	1	70	6	2	159.66	49	4
19	41	16	6	1	1	75	10	1	71	6	1	32.24	49	1
19	41	16	6	1	1	75	10	1	72	6	9	215.15	49	5
19	41	16	6	1	1	75	10	1	73	6	5	116.42	49	3
19	41	16	6	1	1	75	10	1	74	6	6	44.39	49	1
19	41	16	6	1	1	75	10	1	75	6	3	113.05	49	3
19	41	16	6	1	1	75	10	1	76	6	8	309.4	49	7
19	41	16	6	1	1	75	10	1	77	6	5	343.73	49	7
19	41	16	6	1	1	75	10	1	78	16	9	75.55	49	2
19	41	16	6	1	1	75	10	1	79	16	6	0	-1	16
19	41	16	6	1	1	75	10	1	80	16	3	0	-1	16
19	41	16	6	1	1	75	10	1	81	16	8	0	-1	16
19	41	16	6	1	1	75	10	1	82	6	4	0	-1	16
19	41	16	6	1	1	75	10	1	83	16	7	10.24	49	1
19	41	16	6	1	1	75	10	1	84	6	10	0	-1	16
19	41	16	6	1	1	75	10	1	85	6	2	380	49	8
19	41	16	6	1	1	75	10	1	86	6	9	409.26	49	9
19	41	16	6	1	1	75	10	1	87	6	7	316.32	49	7
19	41	16	6	1	1	75	10	1	88	6	8	294.76	49	6
19	41	16	6	1	1	75	10	1	89	6	6	274.35	49	6
19	41	16	6	1	1	75	10	1	90	6	3	284.44	49	6
19	41	16	6	1	1	75	10	1	90	6	3	506.74	49	11
19	41	16	6	1	1	75	10	1	91	6	1	69.02	49	2
19	41	16	6	1	1	75	10	1	92	6	7	14.89	49	1
19	41	16	6	1	1	75	10	1	93	16	9	41.73	49	1
19	41	16	6	1	1	75	10	1	94	6	5	564.29	49	12
19	41	16	6	1	1	75	10	1	95	6	2	664.32	49	14
19	41	16	6	1	1	75	10	1	96	6	1	7.72	49	1
19	41	16	6	1	1	75	10	1	97	6	9	226.87	49	5
19	41	16	6	1	1	75	10	1	98	16	2	14.13	49	1
19	41	16	6	1	1	75	10	1	99	6	4	129.1	49	3
19	41	16	6	1	1	75	10	1	100	16	4	188.25	49	4
19	41	16	6	1	1	75	10	1	101	6	10	638.58	49	13
19	41	16	6	1	1	75	10	1	102	6	3	8.21	49	1
19	41	16	6	1	1	75	10	1	103	6	6	59.93	49	2
19	41	16	6	1	1	75	10	1	104	6	8	243.05	49	5
19	41	16	6	1	1	75	10	1	105	6	5	516.78	49	11
19	41	16	6	1	1	75	10	1	106	6	9	368.45	49	8
19	41	16	6	1	1	75	10	1	107	16	10	0	-1	16
19	41	16	6	1	1	75	10	1	108	6	4	467.18	49	10
19	41	16	6	1	1	75	10	1	109	16	1	0	-1	16
19	41	16	6	1	1	75	10	1	110	6	2	0	-1	16
19	41	16	6	1	1	75	10	1	111	6	10	84.6	49	2
19	41	16	6	1	1	75	10	1	112	6	6	317.18	49	7
19	41	16	6	1	1	75	10	1	113	16	5	209.74	49	5
19	41	16	6	1	1	75	10	1	114	6	3	718.02	49	15
19	41	16	6	1	1	75	10	1	115	6	7	8.37	49	1
19	41	16	6	1	1	75	10	1	116	16	3	0	-1	16
19	41	16	6	1	1	75	10	1	117	16	6	0	-1	16
19	41	16	6	1	1	75	10	1	118	16	8	0	-1	16
19	41	16	6	1	1	75	10	1	119	6	8	0	-1	16
19	41	16	6	1	1	75	10	1	120	6	1	213.73	49	5
19	41	16	6	1	1	75	10	1	121	16	5	123.93	49	3
19	41	16	6	1	1	75	10	1	122	6	5	0	-1	16
19	41	16	6	1	1	75	10	1	123	6	2	19.33	49	1
19	41	16	6	1	1	75	10	1	124	16	4	611.38	49	13
19	41	16	6	1	1	75	10	1	125	16	9	13.96	49	1
19	41	16	6	1	1	75	10	1	126	16	10	0	-1	16
19	41	16	6	1	1	75	10	1	127	6	10	786.08	49	16
19	41	16	6	1	1	75	10	1	128	16	2	9.63	49	1
19	41	16	6	1	1	75	10	1	129	16	6	0	-1	16
19	41	16	6	1	1	75	10	1	130	16	8	0	-1	16
19	41	16	6	1	1	75	10	1	131	16	7	0	-1	16
19	41	16	6	1	1	75	10	1	132	6	9	781.13	49	16
19	41	16	6	1	1	75	10	1	133	6	4	7.7	49	1
19	41	16	6	1	1	75	10	1	133	6	4	759.74	49	16
19	41	16	6	1	1	75	10	1	134	6	8	7.77	49	1
19	41	16	6	1	1	75	10	1	135	6	7	308.53	49	7
19	41	16	6	1	1	75	10	1	136	6	3	673.5	49	14
19	41	16	6	1	1	75	10	1	137	6	6	10.28	49	1
19	41	16	6	1	1	75	10	1	138	6	1	111.15	49	3
19	41	16	6	1	1	75	10	1	138	6	1	311.8	49	7
19	41	16	6	1	1	75	10	1	139	16	3	481.6	49	10
19	41	16	6	1	1	75	10	1	140	16	1	0	-1	16
19	41	16	6	1	1	75	10	1	141	16	6	0	-1	16
19	41	16	6	1	1	75	10	1	142	6	7	0	-1	16
19	41	16	6	1	1	75	10	1	143	6	2	21.36	49	1
19	41	16	6	1	1	75	10	1	143	6	2	759.91	49	16
19	41	16	6	1	1	75	10	1	144	16	10	8.15	49	1
19	41	16	6	1	1	75	10	1	145	6	10	0	-1	16
19	41	16	6	1	1	75	10	1	146	6	4	107.35	49	3
19	41	16	6	1	1	75	10	1	147	6	5	132.22	49	3
19	41	16	6	1	1	75	10	1	147	6	5	361.14	49	8
19	41	16	6	1	1	75	10	1	148	6	1	434.09	49	9
19	41	16	6	1	1	75	10	1	148	6	1	661.09	49	14
19	41	16	6	1	1	75	10	1	149	6	9	591.46	49	12
19	41	16	6	1	1	75	10	1	150	6	6	11.2	49	1
19	41	16	6	1	1	75	10	1	151	6	3	10.44	49	1
19	41	16	6	1	1	75	10	1	152	6	8	159.64	49	4
19	41	16	6	1	1	75	10	1	152	6	8	359.68	49	8
19	41	16	6	1	1	75	10	1	153	6	7	327.34	49	7
19	41	16	6	1	1	75	10	1	154	6	9	719.15	49	15
19	41	16	6	1	1	75	10	1	155	6	4	8.26	49	1
19	41	16	6	1	1	75	10	1	155	6	4	661.52	49	14
19	41	16	6	1	1	75	10	1	156	6	2	7.63	49	1
19	41	16	6	1	1	75	10	1	157	6	10	318.89	49	7
19	41	16	6	1	1	75	10	1	158	6	5	775.21	49	16
19	41	16	6	1	1	75	10	1	159	6	1	8.27	49	1
19	41	16	6	1	1	75	10	1	160	6	3	81.51	49	2
19	41	16	6	1	1	75	10	1	161	16	4	358.99	49	8
19	41	16	6	1	1	75	10	1	162	6	6	728.49	49	15
19	41	16	6	1	1	75	10	1	163	16	8	8.58	49	1
19	41	16	6	1	1	75	10	1	164	6	8	0	-1	16
19	41	16	6	1	1	75	10	1	165	6	6	40.05	49	1
19	41	16	6	1	1	75	10	1	166	16	7	109.67	49	3
19	41	16	6	1	1	75	10	1	167	6	4	510.09	49	11
19	41	16	6	1	1	75	10	1	168	6	5	758.32	49	16
19	41	16	6	1	1	75	10	1	169	6	10	9.24	49	1
19	41	16	6	1	1	75	10	1	170	6	9	393.58	49	8
19	41	16	6	1	1	75	10	1	171	6	7	0	-1	16
19	41	16	6	1	1	75	10	1	172	16	5	123.48	49	3
19	41	16	6	1	1	75	10	1	173	6	2	0	-1	16
19	41	16	6	1	1	75	10	1	174	16	2	172.62	49	4
19	41	16	6	1	1	75	10	1	175	6	1	725.92	49	15
19	41	16	6	1	1	75	10	1	176	6	8	8.54	49	1
19	41	16	6	1	1	75	10	1	177	6	3	76.76	49	2
19	41	16	6	1	1	75	10	1	178	6	5	659.82	49	14
19	41	16	6	1	1	75	10	1	179	6	4	11.19	49	1
19	41	16	6	1	1	75	10	1	179	6	4	707.21	49	15
19	41	16	6	1	1	75	10	1	180	6	2	10.42	49	1
19	41	16	6	1	1	75	10	1	181	6	10	220.12	49	5
19	41	16	6	1	1	75	10	1	182	6	9	508.01	49	11
19	41	16	6	1	1	75	10	1	182	6	9	709.01	49	15
19	41	16	6	1	1	75	10	1	183	6	6	0	-1	16
19	41	16	6	1	1	75	10	1	184	16	9	7.93	49	1
19	41	16	6	1	1	75	10	1	185	16	1	715.75	49	15
19	41	16	6	1	1	75	10	1	186	6	8	7.9	49	1
19	41	16	6	1	1	75	10	1	187	6	7	188.41	49	4
19	41	16	6	1	1	75	10	1	188	6	3	285.12	49	6
19	41	16	6	1	1	75	10	1	189	6	1	469.25	49	10
19	41	16	6	1	1	75	10	1	190	6	6	688.61	49	14
19	41	16	6	1	1	75	10	1	191	16	3	10.41	49	1
19	41	16	6	1	1	75	10	1	192	6	4	663.68	49	14
19	41	16	6	1	1	75	10	1	193	6	1	10.87	49	1
19	41	16	6	1	1	75	10	1	194	6	2	673.84	49	14
19	41	16	6	1	1	75	10	1	195	16	6	8.96	49	1
19	41	16	6	1	1	75	10	1	196	6	5	637.96	49	13
19	41	16	6	1	1	75	10	1	197	6	9	7.79	49	1
19	41	16	6	1	1	75	10	1	197	6	9	663.57	49	14
19	41	16	6	1	1	75	10	1	198	16	8	7.99	49	1
19	41	16	6	1	1	75	10	1	199	16	10	0	-1	16
19	41	16	6	1	1	75	10	1	200	6	10	0	-1	16
19	41	16	6	1	1	75	10	1	201	6	7	125.83	49	3
19	41	16	6	1	1	75	10	1	202	6	8	507.48	49	11
19	41	16	6	1	1	75	10	1	203	16	2	786.14	49	16
19	41	16	6	1	1	75	10	1	204	6	3	8.08	49	1
19	41	16	6	1	1	75	10	1	204	6	3	684.89	49	14
19	41	16	6	1	1	75	10	1	205	16	7	10.59	49	1
19	41	16	6	1	1	75	10	1	206	6	7	771.33	49	16
19	41	16	6	1	1	75	10	1	207	6	1	10.82	49	1
19	41	16	6	1	1	75	10	1	208	6	5	387.61	49	8
19	41	16	6	1	1	75	10	1	209	16	1	208.73	49	5
19	41	16	6	1	1	75	10	1	210	6	10	0	-1	16
19	41	16	6	1	1	75	10	1	211	6	4	60.5	49	2
19	41	16	6	1	1	75	10	1	212	16	4	0	-1	16
19	41	16	6	1	1	75	10	1	213	6	2	775.11	49	16
19	41	16	6	1	1	75	10	1	214	6	9	7.7	49	1
19	41	16	6	1	1	75	10	1	214	6	9	680.37	49	14
19	41	16	6	1	1	75	10	1	215	16	5	12.13	49	1
19	41	16	6	1	1	75	10	1	216	6	3	162.56	49	4
19	41	16	6	1	1	75	10	1	216	6	3	407.3	49	9
19	41	16	6	1	1	75	10	1	216	6	3	714.02	49	15
19	41	16	6	1	1	75	10	1	217	6	6	8.64	49	1
19	41	16	6	1	1	75	10	1	218	6	8	314.25	49	7
19	41	16	6	1	1	75	10	1	219	6	6	310.06	49	7
19	41	16	6	1	1	75	10	1	220	6	4	417.77	49	9
19	41	16	6	1	1	75	10	1	221	16	9	0	-1	16
19	41	16	6	1	1	75	10	1	222	6	9	692.72	49	14
19	41	16	6	1	1	75	10	1	223	6	10	8.74	49	1
19	41	16	6	1	1	75	10	1	224	6	1	363.83	49	8
19	41	16	6	1	1	75	10	1	225	16	3	0	-1	16
19	41	16	6	1	1	75	10	1	226	6	2	659.97	49	14
19	41	16	6	1	1	75	10	1	227	6	7	7.75	49	1
19	41	16	6	1	1	75	10	1	228	6	5	0	-1	16
19	41	16	6	1	1	75	10	1	229	6	8	0	-1	16
19	41	16	6	1	1	75	10	1	230	6	3	416.5	49	9
19	41	16	6	1	1	75	10	1	231	6	6	0	-1	16
19	41	16	6	1	1	75	10	1	232	16	6	660.17	49	14
19	41	16	6	1	1	75	10	1	233	16	7	12.17	49	1
19	41	16	6	1	1	75	10	1	234	6	5	611.8	49	13
19	41	16	6	1	1	75	10	1	235	6	7	0	-1	16
19	41	16	6	1	1	75	10	1	236	16	8	191.7	49	4
19	41	16	6	1	1	75	10	1	237	6	1	0	-1	16
19	41	16	6	1	1	75	10	1	238	6	2	111.23	49	3
19	41	16	6	1	1	75	10	1	238	6	2	774.29	49	16
19	41	16	6	1	1	75	10	1	239	6	8	7.72	49	1
19	41	16	6	1	1	75	10	1	239	6	8	738.02	49	15
19	41	16	6	1	1	75	10	1	240	6	4	7.53	49	1
19	41	16	6	1	1	75	10	1	240	6	4	718.36	49	15
19	41	16	6	1	1	75	10	1	241	6	9	7.81	49	1
19	41	16	6	1	1	75	10	1	242	6	10	206.92	49	5
19	41	16	6	1	1	75	10	1	243	6	3	711.45	49	15
19	41	16	6	1	1	75	10	1	244	16	5	8.37	49	1
19	41	16	6	1	1	75	10	1	245	6	7	732.13	49	15
19	41	16	6	1	1	75	10	1	246	6	10	10.54	49	1
19	41	16	6	1	1	75	10	1	247	6	4	727.37	49	15
19	41	16	6	1	1	75	10	1	248	6	2	10.47	49	1
19	41	16	6	1	1	75	10	1	249	6	5	769.04	49	16
19	41	16	6	1	1	75	10	1	250	16	2	8.42	49	1
19	41	16	6	1	1	75	10	1	251	16	1	707.56	49	15
19	41	16	6	1	1	75	10	1	252	6	1	11.02	49	1
19	41	16	6	1	1	75	10	1	252	6	1	781.95	49	16
19	41	16	6	1	1	75	10	1	253	16	4	8.79	49	1
19	41	16	6	1	1	75	10	1	254	6	9	633.97	49	13
19	41	16	6	1	1	75	10	1	255	6	6	0	-1	16
19	41	16	6	1	1	75	10	1	256	6	3	209.06	49	5
19	41	16	6	1	1	75	10	1	257	6	8	15.5	49	1
19	41	16	6	1	1	75	10	1	258	6	6	93.03	49	2
19	41	16	6	1	1	75	10	1	259	6	2	714.47	49	15
19	41	16	6	1	1	75	10	1	260	6	7	10.84	49	1
19	41	16	6	1	1	75	10	1	261	16	9	214.89	49	5
19	41	16	6	1	1	75	10	1	262	6	8	423.57	49	9
19	41	16	6	1	1	75	10	1	263	6	5	771.06	49	16
19	41	16	6	1	1	75	10	1	264	6	9	7.87	49	1
19	41	16	6	1	1	75	10	1	265	16	10	29.79	49	1
19	41	16	6	1	1	75	10	1	266	6	1	557.3	49	12
19	41	16	6	1	1	75	10	1	266	6	1	759.33	49	16
19	41	16	6	1	1	75	10	1	267	6	4	725.27	49	15
19	41	16	6	1	1	75	10	1	268	6	10	10.44	49	1
19	41	16	6	1	1	75	10	1	269	16	3	142.27	49	3
19	41	16	6	1	1	75	10	1	270	6	3	569.87	49	12
19	41	16	6	1	1	75	10	1	271	16	7	0	-1	16
19	41	16	6	1	1	75	10	1	272	6	6	681.45	49	14
19	41	16	6	1	1	75	10	1	273	16	1	12.03	49	1
19	41	16	6	1	1	75	10	1	274	6	8	0	-1	16
19	41	16	6	1	1	75	10	1	275	6	4	40.79	49	1
19	41	16	6	1	1	75	10	1	276	16	10	479.93	49	10
19	41	16	6	1	1	75	10	1	276	16	10	710.32	49	15
19	41	16	6	1	1	75	10	1	277	6	10	0	-1	16
19	41	16	6	1	1	75	10	1	278	6	2	244.25	49	5
19	41	16	6	1	1	75	10	1	279	6	9	617.42	49	13
19	41	16	6	1	1	75	10	1	280	6	1	575.84	49	12
19	41	16	6	1	1	75	10	1	281	6	5	7.78	49	1
19	41	16	6	1	1	75	10	1	281	6	5	767.29	49	16
19	41	16	6	1	1	75	10	1	282	6	7	8.23	49	1
19	41	16	6	1	1	75	10	1	283	6	3	258.37	49	6
19	41	16	6	1	1	75	10	1	284	6	2	757.31	49	16
19	41	16	6	1	1	75	10	1	285	6	10	10.12	49	1
19	41	16	6	1	1	75	10	1	286	6	9	559.64	49	12
19	41	16	6	1	1	75	10	1	287	6	8	0	-1	16
19	41	16	6	1	1	75	10	1	288	16	9	260.67	49	6
19	41	16	6	1	1	75	10	1	288	16	9	461.1	49	10
19	41	16	6	1	1	75	10	1	289	6	5	632.23	49	13
19	41	16	6	1	1	75	10	1	290	6	1	8.28	49	1
19	41	16	6	1	1	75	10	1	291	6	7	35.24	49	1
19	41	16	6	1	1	75	10	1	292	16	2	307.29	49	7
19	41	16	6	1	1	75	10	1	293	6	3	645.36	49	13
19	41	16	6	1	1	75	10	1	294	6	6	8.93	49	1
19	41	16	6	1	1	75	10	1	295	6	4	157.09	49	4
19	41	16	6	1	1	75	10	1	296	16	5	164.93	49	4
19	41	16	6	1	1	75	10	1	297	16	4	370.42	49	8
19	41	16	6	1	1	75	10	1	298	6	2	617.92	49	13
19	41	16	6	1	1	75	10	1	299	6	9	768.96	49	16
19	41	16	6	1	1	75	10	1	300	6	10	16.09	49	1
19	41	16	6	1	1	75	10	1	301	16	6	0	-1	16
19	41	16	6	1	1	75	10	1	302	6	1	535.43	49	11
19	41	16	6	1	1	75	10	1	303	6	8	709.6	49	15
19	41	16	6	1	1	75	10	1	304	16	3	7.8	49	1
19	41	16	6	1	1	75	10	1	305	6	6	715.94	49	15
19	41	16	6	1	1	75	10	1	306	16	8	7.18	49	1
19	41	16	6	1	1	75	10	1	307	6	7	742.24	49	15
19	41	16	6	1	1	75	10	1	308	6	3	8.15	49	1
19	41	16	6	1	1	75	10	1	309	16	7	365.01	49	8
19	41	16	6	1	1	75	10	1	310	16	1	0	-1	16
19	41	16	6	1	1	75	10	1	311	6	5	0	-1	16
19	41	16	6	1	1	75	10	1	312	6	4	26.73	49	1
19	41	16	6	1	1	75	10	1	312	6	4	260.49	49	6
19	41	16	6	1	1	75	10	1	313	6	7	23.85	49	1
19	41	16	6	1	1	75	10	1	314	16	9	0	-1	16
19	41	16	6	1	1	75	10	1	315	6	9	741.08	49	15
19	41	16	6	1	1	75	10	1	316	16	4	10.36	49	1
19	41	16	6	1	1	75	10	1	317	6	2	660.21	49	14
19	41	16	6	1	1	75	10	1	318	6	4	7.55	49	1
19	41	16	6	1	1	75	10	1	319	16	5	159.74	49	4
19	41	16	6	1	1	75	10	1	320	6	5	709.46	49	15
19	41	16	6	1	1	75	10	1	321	6	1	8.32	49	1
19	41	16	6	1	1	75	10	1	322	6	10	186.87	49	4
19	41	16	6	1	1	75	10	1	323	16	10	409.59	49	9
19	41	16	6	1	1	75	10	1	324	16	2	0	-1	16
19	41	16	6	1	1	75	10	1	325	6	6	684.31	49	14
19	41	16	6	1	1	75	10	1	326	6	3	12.44	49	1
19	41	16	6	1	1	75	10	1	327	6	8	386.21	49	8
19	41	16	6	1	1	75	10	1	328	6	5	539.17	49	11
19	41	16	6	1	1	75	10	1	329	6	10	671.68	49	14
19	41	16	6	1	1	75	10	1	330	6	4	7.69	49	1
19	41	16	6	1	1	75	10	1	331	6	9	634.43	49	13
19	41	16	6	1	1	75	10	1	332	6	2	8.5	49	1
19	41	16	6	1	1	75	10	1	333	6	8	78	49	2
19	41	16	6	1	1	75	10	1	334	6	7	44.72	49	1
19	41	16	6	1	1	75	10	1	335	6	3	35.35	49	1
19	41	16	6	1	1	75	10	1	335	6	3	740.62	49	15
19	41	16	6	1	1	75	10	1	336	6	6	10.37	49	1
19	41	16	6	1	1	75	10	1	336	6	6	760.08	49	16
19	41	16	6	1	1	75	10	1	337	6	1	9.97	49	1
19	41	16	6	1	1	75	10	1	338	6	7	133.73	49	3
19	41	16	6	1	1	75	10	1	339	6	9	361.19	49	8
19	41	16	6	1	1	75	10	1	340	6	4	686.99	49	14
19	41	16	6	1	1	75	10	1	341	6	10	8.19	49	1
19	41	16	6	1	1	75	10	1	342	6	5	172.45	49	4
19	41	16	6	1	1	75	10	1	343	16	6	126.42	49	3
19	41	16	6	1	1	75	10	1	344	16	3	0	-1	16
19	41	16	6	1	1	75	10	1	345	16	8	0	-1	16
19	41	16	6	1	1	75	10	1	346	6	2	734.07	49	15
19	41	16	6	1	1	75	10	1	347	16	2	8.53	49	1
19	41	16	6	1	1	75	10	1	348	6	1	0	-1	16
19	41	16	6	1	1	75	10	1	349	6	3	72.42	49	2
19	41	16	6	1	1	75	10	1	349	6	3	778.54	49	16
19	41	16	6	1	1	75	10	1	350	6	6	11.94	49	1
19	41	16	6	1	1	75	10	1	351	6	8	11.11	49	1
19	41	16	6	1	1	75	10	1	352	6	2	308.86	49	7
19	41	16	6	1	1	75	10	1	353	6	9	237.47	49	5
19	41	16	6	1	1	75	10	1	354	6	10	121.28	49	3
19	41	16	6	1	1	75	10	1	355	6	7	271.69	49	6
19	41	16	6	1	1	75	10	1	356	16	9	256.93	49	6
19	41	16	6	1	1	75	10	1	357	6	1	660.1	49	14
19	41	16	6	1	1	75	10	1	358	6	6	7.57	49	1
19	41	16	6	1	1	75	10	1	359	6	5	166.09	49	4
19	41	16	6	1	1	75	10	1	360	6	8	207.25	49	5
19	41	16	6	1	1	75	10	1	361	6	3	507.47	49	11
19	41	16	6	1	1	75	10	1	362	6	4	718.83	49	15
19	41	16	6	1	1	75	10	1	363	6	5	10.92	49	1
19	41	16	6	1	1	75	10	1	363	6	5	725.15	49	15
19	41	16	6	1	1	75	10	1	364	6	2	10.27	49	1
19	41	16	6	1	1	75	10	1	364	6	2	772.24	49	16
19	41	16	6	1	1	75	10	1	365	16	10	10.46	49	1
19	41	16	6	1	1	75	10	1	366	6	10	584.5	49	12
19	41	16	6	1	1	75	10	1	367	6	9	0	-1	16
19	41	16	6	1	1	75	10	1	368	6	4	157.47	49	4
19	41	16	6	1	1	75	10	1	368	6	4	359.7	49	8
19	41	16	6	1	1	75	10	1	369	6	3	385.57	49	8
19	41	16	6	1	1	75	10	1	370	6	8	0	-1	16
19	41	16	6	1	1	75	10	1	371	6	7	269.65	49	6
19	41	16	6	1	1	75	10	1	372	6	6	157.89	49	4
19	41	16	6	1	1	75	10	1	373	6	1	478.42	49	10
19	41	16	6	1	1	75	10	1	374	6	2	760.23	49	16
19	41	16	6	1	1	75	10	1	375	6	10	8.44	49	1
19	41	16	6	1	1	75	10	1	376	6	9	144.36	49	3
19	41	16	6	1	1	75	10	1	377	6	7	312.08	49	7
19	41	16	6	1	1	75	10	1	378	16	7	142.66	49	3
19	41	16	6	1	1	75	10	1	379	16	3	0	-1	16
19	41	16	6	1	1	75	10	1	380	16	5	0	-1	16
19	41	16	6	1	1	75	10	1	381	6	5	657.18	49	14
19	41	16	6	1	1	75	10	1	382	16	6	10.36	49	1
19	41	16	6	1	1	75	10	1	383	6	8	610.13	49	13
19	41	16	6	1	1	75	10	1	384	6	1	8.22	49	1
19	41	16	6	1	1	75	10	1	385	6	6	223.1	49	5
19	41	16	6	1	1	75	10	1	386	6	3	278.51	49	6
19	41	16	6	1	1	75	10	1	387	16	8	457.82	49	10
19	41	16	6	1	1	75	10	1	388	6	4	0	-1	16
19	41	16	6	1	1	75	10	1	389	6	7	25.96	49	1
19	41	16	6	1	1	75	10	1	390	6	1	320.73	49	7
19	41	16	6	1	1	75	10	1	390	6	1	785.85	49	16
19	41	16	6	1	1	75	10	1	391	6	2	10.66	49	1
19	41	16	6	1	1	75	10	1	392	6	5	210.26	49	5
19	41	16	6	1	1	75	10	1	393	16	1	126.55	49	3
19	41	16	6	1	1	75	10	1	394	6	10	0	-1	16
19	41	16	6	1	1	75	10	1	395	16	4	109.28	49	3
19	41	16	6	1	1	75	10	1	396	6	4	259.12	49	6
19	41	16	6	1	1	75	10	1	397	6	9	442.59	49	9
19	41	16	6	1	1	75	10	1	398	6	6	418.68	49	9
19	41	16	6	1	1	75	10	1	399	6	3	681.65	49	14
19	41	16	6	1	1	75	10	1	400	6	8	39.85	49	1
19	41	16	6	1	1	75	10	1	401	16	5	188.63	49	4
19	41	16	6	1	1	75	10	1	402	6	6	767.63	49	16
19	41	16	6	1	1	75	10	1	403	16	9	12.32	49	1
19	41	16	6	1	1	75	10	1	404	6	10	161.73	49	4
19	41	16	6	1	1	75	10	1	405	6	9	360.41	49	8
19	41	16	6	1	1	75	10	1	406	16	2	0	-1	16
19	41	16	6	1	1	75	10	1	407	16	10	368.19	49	8
19	41	16	6	1	1	75	10	1	408	6	5	0	-1	16
19	41	16	6	1	1	75	10	1	409	16	4	21.32	49	1
19	41	16	6	1	1	75	10	1	410	16	6	0	-1	16
19	41	16	6	1	1	75	10	1	411	6	7	725.68	49	15
19	41	16	6	1	1	75	10	1	412	16	7	7.84	49	1
19	41	16	6	1	1	75	10	1	413	6	4	756.64	49	16
19	41	16	6	1	1	75	10	1	414	16	8	10.83	49	1
19	41	16	6	1	1	75	10	1	415	6	2	0	-1	16
19	41	16	6	1	1	75	10	1	416	6	1	12.02	49	1
19	41	16	6	1	1	75	10	1	417	6	8	13.38	49	1
19	41	16	6	1	1	75	10	1	418	6	3	122.97	49	3
19	41	16	6	1	1	75	10	1	419	6	2	187.17	49	4
19	41	16	6	1	1	75	10	1	420	6	10	308.6	49	7
19	41	16	6	1	1	75	10	1	421	16	3	0	-1	16
19	41	16	6	1	1	75	10	1	422	6	9	8.26	49	1
19	41	16	6	1	1	75	10	1	422	6	9	659.89	49	14
19	41	16	6	1	1	75	10	1	423	16	1	9.2	49	1
19	41	16	6	1	1	75	10	1	424	6	7	0	-1	16
19	41	16	6	1	1	75	10	1	425	6	6	15.4	49	1
19	41	16	6	1	1	75	10	1	425	6	6	760.47	49	16
19	41	16	6	1	1	75	10	1	426	16	6	7.67	49	1
19	41	16	6	1	1	75	10	1	427	6	5	685.41	49	14
19	41	16	6	1	1	75	10	1	428	16	7	7.95	49	1
19	41	16	6	1	1	75	10	1	429	6	8	675.19	49	14
19	41	16	6	1	1	75	10	1	430	6	1	11.34	49	1
19	41	16	6	1	1	75	10	1	431	16	1	172.86	49	4
19	41	16	6	1	1	75	10	1	432	6	3	791.93	49	16
19	41	16	6	1	1	75	10	1	433	6	4	12.17	49	1
19	41	16	6	1	1	75	10	1	434	6	6	379.96	49	8
19	41	16	6	1	1	75	10	1	435	6	1	389.87	49	8
19	41	16	6	1	1	75	10	1	436	6	4	431.14	49	9
19	41	16	6	1	1	75	10	1	437	6	10	0	-1	16
19	41	16	6	1	1	75	10	1	438	6	5	157.06	49	4
19	41	16	6	1	1	75	10	1	439	16	10	407.05	49	9
19	41	16	6	1	1	75	10	1	440	6	7	683.83	49	14
19	41	16	6	1	1	75	10	1	441	6	2	8.54	49	1
19	41	16	6	1	1	75	10	1	442	6	9	621.74	49	13
19	41	16	6	1	1	75	10	1	443	6	8	423.29	49	9
19	41	16	6	1	1	75	10	1	444	6	3	369.11	49	8
19	41	16	6	1	1	75	10	1	445	6	5	212	49	5
19	41	16	6	1	1	75	10	1	446	6	4	111.68	49	3
19	41	16	6	1	1	75	10	1	447	6	9	9.79	49	1
19	41	16	6	1	1	75	10	1	447	6	9	786.6	49	16
19	41	16	6	1	1	75	10	1	448	6	2	9.37	49	1
19	41	16	6	1	1	75	10	1	449	6	10	79.01	49	2
19	41	16	6	1	1	75	10	1	450	6	8	0	-1	16
