SubjectNum	Age	Gender	PressedTask	Block Type	Block Repeat Num	Response Rate	Onset	Block	Trial	ImgType	ImgNum	RT	PressedC	FrameC
23	23	9	6	1	1	75	10	1	1	6	5	0	-1	16
23	23	9	6	1	1	75	10	1	2	6	10	12.57	49	1
23	23	9	6	1	1	75	10	1	3	6	4	85.97	49	2
23	23	9	6	1	1	75	10	1	4	6	9	109.31	49	3
23	23	9	6	1	1	75	10	1	5	16	7	18.69	49	1
23	23	9	6	1	1	75	10	1	6	6	2	722.73	49	15
23	23	9	6	1	1	75	10	1	7	6	3	8.25	49	1
23	23	9	6	1	1	75	10	1	7	6	3	664.1	49	14
23	23	9	6	1	1	75	10	1	8	16	9	0	-1	16
23	23	9	6	1	1	75	10	1	9	6	8	764.74	49	16
23	23	9	6	1	1	75	10	1	10	16	2	7.82	49	1
23	23	9	6	1	1	75	10	1	11	6	7	117.62	49	3
23	23	9	6	1	1	75	10	1	12	6	6	0	-1	16
23	23	9	6	1	1	75	10	1	13	6	1	43.76	49	1
23	23	9	6	1	1	75	10	1	13	6	1	794.52	49	16
23	23	9	6	1	1	75	10	1	14	16	5	8.03	49	1
23	23	9	6	1	1	75	10	1	15	6	5	621.22	49	13
23	23	9	6	1	1	75	10	1	16	6	2	0	-1	16
23	23	9	6	1	1	75	10	1	17	6	4	8.15	49	1
23	23	9	6	1	1	75	10	1	18	6	9	190.98	49	4
23	23	9	6	1	1	75	10	1	19	6	10	310.08	49	7
23	23	9	6	1	1	75	10	1	20	16	1	0	-1	16
23	23	9	6	1	1	75	10	1	21	6	3	710.34	49	15
23	23	9	6	1	1	75	10	1	22	16	10	7.61	49	1
23	23	9	6	1	1	75	10	1	23	6	7	0	-1	16
23	23	9	6	1	1	75	10	1	24	16	4	107.21	49	3
23	23	9	6	1	1	75	10	1	25	6	8	0	-1	16
23	23	9	6	1	1	75	10	1	26	16	3	68.05	49	2
23	23	9	6	1	1	75	10	1	27	6	6	687.86	49	14
23	23	9	6	1	1	75	10	1	28	6	1	0	-1	16
23	23	9	6	1	1	75	10	1	29	6	6	22.23	49	1
23	23	9	6	1	1	75	10	1	30	6	1	108.44	49	3
23	23	9	6	1	1	75	10	1	31	16	6	0	-1	16
23	23	9	6	1	1	75	10	1	32	6	9	0	-1	16
23	23	9	6	1	1	75	10	1	33	6	8	27.56	49	1
23	23	9	6	1	1	75	10	1	34	6	10	0	-1	16
23	23	9	6	1	1	75	10	1	35	16	8	0	-1	16
23	23	9	6	1	1	75	10	1	36	6	7	0	-1	16
23	23	9	6	1	1	75	10	1	37	6	4	110.44	49	3
23	23	9	6	1	1	75	10	1	38	6	2	0	-1	16
23	23	9	6	1	1	75	10	1	39	6	5	0	-1	16
23	23	9	6	1	1	75	10	1	40	16	7	7.61	49	1
23	23	9	6	1	1	75	10	1	40	16	7	716.05	49	15
23	23	9	6	1	1	75	10	1	41	16	4	8.05	49	1
23	23	9	6	1	1	75	10	1	42	6	3	695.28	49	14
23	23	9	6	1	1	75	10	1	43	6	7	0	-1	16
23	23	9	6	1	1	75	10	1	44	6	5	738.62	49	15
23	23	9	6	1	1	75	10	1	45	6	2	9	49	1
23	23	9	6	1	1	75	10	1	46	6	1	213.52	49	5
23	23	9	6	1	1	75	10	1	47	6	9	108.01	49	3
23	23	9	6	1	1	75	10	1	48	6	4	660.45	49	14
23	23	9	6	1	1	75	10	1	49	16	5	0	-1	16
23	23	9	6	1	1	75	10	1	50	16	1	0	-1	16
23	23	9	6	1	1	75	10	1	51	6	10	724.65	49	15
23	23	9	6	1	1	75	10	1	52	6	6	7.63	49	1
23	23	9	6	1	1	75	10	1	53	6	3	783.95	49	16
23	23	9	6	1	1	75	10	1	54	6	8	7.39	49	1
23	23	9	6	1	1	75	10	1	55	16	2	176.02	49	4
23	23	9	6	1	1	75	10	1	56	6	2	0	-1	16
23	23	9	6	1	1	75	10	1	57	6	10	0	-1	16
23	23	9	6	1	1	75	10	1	58	6	9	78.72	49	2
23	23	9	6	1	1	75	10	1	59	16	10	627.92	49	13
23	23	9	6	1	1	75	10	1	60	6	1	8.11	49	1
23	23	9	6	1	1	75	10	1	61	6	8	0	-1	16
23	23	9	6	1	1	75	10	1	62	6	3	14.77	49	1
23	23	9	6	1	1	75	10	1	63	6	6	760.7	49	16
23	23	9	6	1	1	75	10	1	64	6	5	7.7	49	1
23	23	9	6	1	1	75	10	1	65	6	7	0	-1	16
23	23	9	6	1	1	75	10	1	66	6	4	0	-1	16
23	23	9	6	1	1	75	10	1	67	6	7	27.2	49	1
23	23	9	6	1	1	75	10	1	68	6	4	684.51	49	14
23	23	9	6	1	1	75	10	1	69	6	10	0	-1	16
23	23	9	6	1	1	75	10	1	70	6	2	241.17	49	5
23	23	9	6	1	1	75	10	1	71	6	1	0	-1	16
23	23	9	6	1	1	75	10	1	72	6	9	210.79	49	5
23	23	9	6	1	1	75	10	1	73	6	5	724.25	49	15
23	23	9	6	1	1	75	10	1	74	6	6	8.29	49	1
23	23	9	6	1	1	75	10	1	74	6	6	660.64	49	14
23	23	9	6	1	1	75	10	1	75	6	3	735.66	49	15
23	23	9	6	1	1	75	10	1	76	6	8	7.75	49	1
23	23	9	6	1	1	75	10	1	77	6	5	116.78	49	3
23	23	9	6	1	1	75	10	1	78	16	9	0	-1	16
23	23	9	6	1	1	75	10	1	79	16	6	0	-1	16
23	23	9	6	1	1	75	10	1	80	16	3	0	-1	16
23	23	9	6	1	1	75	10	1	81	16	8	0	-1	16
23	23	9	6	1	1	75	10	1	82	6	4	634.65	49	13
23	23	9	6	1	1	75	10	1	83	16	7	0	-1	16
23	23	9	6	1	1	75	10	1	84	6	10	22.11	49	1
23	23	9	6	1	1	75	10	1	84	6	10	259.94	49	6
23	23	9	6	1	1	75	10	1	85	6	2	0	-1	16
23	23	9	6	1	1	75	10	1	86	6	9	169.03	49	4
23	23	9	6	1	1	75	10	1	86	6	9	782.53	49	16
23	23	9	6	1	1	75	10	1	87	6	7	9.18	49	1
23	23	9	6	1	1	75	10	1	88	6	8	312.66	49	7
23	23	9	6	1	1	75	10	1	89	6	6	83.08	49	2
23	23	9	6	1	1	75	10	1	90	6	3	25.13	49	1
23	23	9	6	1	1	75	10	1	90	6	3	759.97	49	16
23	23	9	6	1	1	75	10	1	91	6	1	8.39	49	1
23	23	9	6	1	1	75	10	1	92	6	7	159.5	49	4
23	23	9	6	1	1	75	10	1	93	16	9	0	-1	16
23	23	9	6	1	1	75	10	1	94	6	5	118.04	49	3
23	23	9	6	1	1	75	10	1	95	6	2	0	-1	16
23	23	9	6	1	1	75	10	1	96	6	1	134.23	49	3
23	23	9	6	1	1	75	10	1	97	6	9	8.2	49	1
23	23	9	6	1	1	75	10	1	98	16	2	130.34	49	3
23	23	9	6	1	1	75	10	1	99	6	4	657.25	49	14
23	23	9	6	1	1	75	10	1	100	16	4	0	-1	16
23	23	9	6	1	1	75	10	1	101	6	10	0	-1	16
23	23	9	6	1	1	75	10	1	102	6	3	92.89	49	2
23	23	9	6	1	1	75	10	1	103	6	6	134.31	49	3
23	23	9	6	1	1	75	10	1	104	6	8	16.13	49	1
23	23	9	6	1	1	75	10	1	105	6	5	236.42	49	5
23	23	9	6	1	1	75	10	1	105	6	5	757.59	49	16
23	23	9	6	1	1	75	10	1	106	6	9	10.6	49	1
23	23	9	6	1	1	75	10	1	106	6	9	785.97	49	16
23	23	9	6	1	1	75	10	1	107	16	10	8.64	49	1
23	23	9	6	1	1	75	10	1	108	6	4	689.09	49	14
23	23	9	6	1	1	75	10	1	109	16	1	8.23	49	1
23	23	9	6	1	1	75	10	1	110	6	2	162.18	49	4
23	23	9	6	1	1	75	10	1	111	6	10	660.56	49	14
23	23	9	6	1	1	75	10	1	112	6	6	8.54	49	1
23	23	9	6	1	1	75	10	1	113	16	5	0	-1	16
23	23	9	6	1	1	75	10	1	114	6	3	0	-1	16
23	23	9	6	1	1	75	10	1	115	6	7	0	-1	16
23	23	9	6	1	1	75	10	1	116	16	3	207.31	49	5
23	23	9	6	1	1	75	10	1	117	16	6	0	-1	16
23	23	9	6	1	1	75	10	1	118	16	8	0	-1	16
23	23	9	6	1	1	75	10	1	119	6	8	760.82	49	16
23	23	9	6	1	1	75	10	1	120	6	1	7.96	49	1
23	23	9	6	1	1	75	10	1	121	16	5	159.15	49	4
23	23	9	6	1	1	75	10	1	122	6	5	757.53	49	16
23	23	9	6	1	1	75	10	1	123	6	2	7.59	49	1
23	23	9	6	1	1	75	10	1	124	16	4	0	-1	16
23	23	9	6	1	1	75	10	1	125	16	9	0	-1	16
23	23	9	6	1	1	75	10	1	126	16	10	0	-1	16
23	23	9	6	1	1	75	10	1	127	6	10	0	-1	16
23	23	9	6	1	1	75	10	1	128	16	2	0	-1	16
23	23	9	6	1	1	75	10	1	129	16	6	0	-1	16
23	23	9	6	1	1	75	10	1	130	16	8	710.25	49	15
23	23	9	6	1	1	75	10	1	131	16	7	7.97	49	1
23	23	9	6	1	1	75	10	1	132	6	9	0	-1	16
23	23	9	6	1	1	75	10	1	133	6	4	59.29	49	2
23	23	9	6	1	1	75	10	1	133	6	4	707.43	49	15
23	23	9	6	1	1	75	10	1	134	6	8	10.84	49	1
23	23	9	6	1	1	75	10	1	135	6	7	339.72	49	7
23	23	9	6	1	1	75	10	1	136	6	3	216.77	49	5
23	23	9	6	1	1	75	10	1	137	6	6	0	-1	16
23	23	9	6	1	1	75	10	1	138	6	1	0	-1	16
23	23	9	6	1	1	75	10	1	139	16	3	275.07	49	6
23	23	9	6	1	1	75	10	1	140	16	1	0	-1	16
23	23	9	6	1	1	75	10	1	141	16	6	0	-1	16
23	23	9	6	1	1	75	10	1	142	6	7	739.27	49	15
23	23	9	6	1	1	75	10	1	143	6	2	7.61	49	1
23	23	9	6	1	1	75	10	1	144	16	10	718.85	49	15
23	23	9	6	1	1	75	10	1	145	6	10	8.12	49	1
23	23	9	6	1	1	75	10	1	146	6	4	60.44	49	2
23	23	9	6	1	1	75	10	1	147	6	5	310.29	49	7
23	23	9	6	1	1	75	10	1	148	6	1	0	-1	16
23	23	9	6	1	1	75	10	1	149	6	9	59.95	49	2
23	23	9	6	1	1	75	10	1	150	6	6	109.45	49	3
23	23	9	6	1	1	75	10	1	151	6	3	207.5	49	5
23	23	9	6	1	1	75	10	1	152	6	8	57.44	49	2
23	23	9	6	1	1	75	10	1	153	6	7	0	-1	16
23	23	9	6	1	1	75	10	1	154	6	9	0	-1	16
23	23	9	6	1	1	75	10	1	155	6	4	80.29	49	2
23	23	9	6	1	1	75	10	1	155	6	4	769.35	49	16
23	23	9	6	1	1	75	10	1	156	6	2	9.67	49	1
23	23	9	6	1	1	75	10	1	157	6	10	80.03	49	2
23	23	9	6	1	1	75	10	1	157	6	10	773.36	49	16
23	23	9	6	1	1	75	10	1	158	6	5	11.2	49	1
23	23	9	6	1	1	75	10	1	158	6	5	694.59	49	14
23	23	9	6	1	1	75	10	1	159	6	1	10.61	49	1
23	23	9	6	1	1	75	10	1	160	6	3	34.99	49	1
23	23	9	6	1	1	75	10	1	160	6	3	734.87	49	15
23	23	9	6	1	1	75	10	1	161	16	4	7.81	49	1
23	23	9	6	1	1	75	10	1	162	6	6	0	-1	16
23	23	9	6	1	1	75	10	1	163	16	8	11.19	49	1
23	23	9	6	1	1	75	10	1	163	16	8	774.52	49	16
23	23	9	6	1	1	75	10	1	164	6	8	7.8	49	1
23	23	9	6	1	1	75	10	1	165	6	6	129.64	49	3
23	23	9	6	1	1	75	10	1	166	16	7	208.26	49	5
23	23	9	6	1	1	75	10	1	167	6	4	593.99	49	12
23	23	9	6	1	1	75	10	1	168	6	5	727.18	49	15
23	23	9	6	1	1	75	10	1	169	6	10	8.28	49	1
23	23	9	6	1	1	75	10	1	170	6	9	88.54	49	2
23	23	9	6	1	1	75	10	1	171	6	7	257.22	49	6
23	23	9	6	1	1	75	10	1	172	16	5	0	-1	16
23	23	9	6	1	1	75	10	1	173	6	2	0	-1	16
23	23	9	6	1	1	75	10	1	174	16	2	111.99	49	3
23	23	9	6	1	1	75	10	1	175	6	1	757.54	49	16
23	23	9	6	1	1	75	10	1	176	6	8	10.24	49	1
23	23	9	6	1	1	75	10	1	177	6	3	0	-1	16
23	23	9	6	1	1	75	10	1	178	6	5	794.65	49	16
23	23	9	6	1	1	75	10	1	179	6	4	8.33	49	1
23	23	9	6	1	1	75	10	1	180	6	2	22.59	49	1
23	23	9	6	1	1	75	10	1	181	6	10	736.16	49	15
23	23	9	6	1	1	75	10	1	182	6	9	10.04	49	1
23	23	9	6	1	1	75	10	1	183	6	6	613.26	49	13
23	23	9	6	1	1	75	10	1	184	16	9	0	-1	16
23	23	9	6	1	1	75	10	1	185	16	1	0	-1	16
23	23	9	6	1	1	75	10	1	186	6	8	74.05	49	2
23	23	9	6	1	1	75	10	1	187	6	7	707.29	49	15
23	23	9	6	1	1	75	10	1	188	6	3	11.72	49	1
23	23	9	6	1	1	75	10	1	189	6	1	719.6	49	15
23	23	9	6	1	1	75	10	1	190	6	6	8.1	49	1
23	23	9	6	1	1	75	10	1	191	16	3	0	-1	16
23	23	9	6	1	1	75	10	1	192	6	4	612.32	49	13
23	23	9	6	1	1	75	10	1	193	6	1	0	-1	16
23	23	9	6	1	1	75	10	1	194	6	2	0	-1	16
23	23	9	6	1	1	75	10	1	195	16	6	0	-1	16
23	23	9	6	1	1	75	10	1	196	6	5	14.72	49	1
23	23	9	6	1	1	75	10	1	197	6	9	0	-1	16
23	23	9	6	1	1	75	10	1	198	16	8	173.7	49	4
23	23	9	6	1	1	75	10	1	199	16	10	0	-1	16
23	23	9	6	1	1	75	10	1	200	6	10	593.9	49	12
23	23	9	6	1	1	75	10	1	201	6	7	0	-1	16
23	23	9	6	1	1	75	10	1	202	6	8	228.65	49	5
23	23	9	6	1	1	75	10	1	203	16	2	0	-1	16
23	23	9	6	1	1	75	10	1	204	6	3	708.08	49	15
23	23	9	6	1	1	75	10	1	205	16	7	8.69	49	1
23	23	9	6	1	1	75	10	1	206	6	7	760.47	49	16
23	23	9	6	1	1	75	10	1	207	6	1	8.04	49	1
23	23	9	6	1	1	75	10	1	208	6	5	210	49	5
23	23	9	6	1	1	75	10	1	208	6	5	793.57	49	16
23	23	9	6	1	1	75	10	1	209	16	1	7.76	49	1
23	23	9	6	1	1	75	10	1	210	6	10	0	-1	16
23	23	9	6	1	1	75	10	1	211	6	4	117.7	49	3
23	23	9	6	1	1	75	10	1	212	16	4	38.43	49	1
23	23	9	6	1	1	75	10	1	213	6	2	792.21	49	16
23	23	9	6	1	1	75	10	1	214	6	9	13.19	49	1
23	23	9	6	1	1	75	10	1	215	16	5	30.95	49	1
23	23	9	6	1	1	75	10	1	216	6	3	0	-1	16
23	23	9	6	1	1	75	10	1	217	6	6	16.25	49	1
23	23	9	6	1	1	75	10	1	217	6	6	671.49	49	14
23	23	9	6	1	1	75	10	1	218	6	8	10.15	49	1
23	23	9	6	1	1	75	10	1	219	6	6	126.09	49	3
23	23	9	6	1	1	75	10	1	220	6	4	269.64	49	6
23	23	9	6	1	1	75	10	1	221	16	9	7.84	49	1
23	23	9	6	1	1	75	10	1	222	6	9	0	-1	16
23	23	9	6	1	1	75	10	1	223	6	10	26.54	49	1
23	23	9	6	1	1	75	10	1	224	6	1	207.52	49	5
23	23	9	6	1	1	75	10	1	225	16	3	0	-1	16
23	23	9	6	1	1	75	10	1	226	6	2	737.92	49	15
23	23	9	6	1	1	75	10	1	227	6	7	7.25	49	1
23	23	9	6	1	1	75	10	1	228	6	5	57.29	49	2
23	23	9	6	1	1	75	10	1	229	6	8	0	-1	16
23	23	9	6	1	1	75	10	1	230	6	3	0	-1	16
23	23	9	6	1	1	75	10	1	231	6	6	0	-1	16
23	23	9	6	1	1	75	10	1	232	16	6	0	-1	16
23	23	9	6	1	1	75	10	1	233	16	7	644.38	49	13
23	23	9	6	1	1	75	10	1	234	6	5	0	-1	16
23	23	9	6	1	1	75	10	1	235	6	7	0	-1	16
23	23	9	6	1	1	75	10	1	236	16	8	10.01	49	1
23	23	9	6	1	1	75	10	1	237	6	1	783.18	49	16
23	23	9	6	1	1	75	10	1	238	6	2	8.93	49	1
23	23	9	6	1	1	75	10	1	239	6	8	121.01	49	3
23	23	9	6	1	1	75	10	1	240	6	4	0	-1	16
23	23	9	6	1	1	75	10	1	241	6	9	0	-1	16
23	23	9	6	1	1	75	10	1	242	6	10	243.13	49	5
23	23	9	6	1	1	75	10	1	243	6	3	0	-1	16
23	23	9	6	1	1	75	10	1	244	16	5	209.67	49	5
23	23	9	6	1	1	75	10	1	245	6	7	0	-1	16
23	23	9	6	1	1	75	10	1	246	6	10	44.7	49	1
23	23	9	6	1	1	75	10	1	247	6	4	645.11	49	13
23	23	9	6	1	1	75	10	1	248	6	2	0	-1	16
23	23	9	6	1	1	75	10	1	249	6	5	610.18	49	13
23	23	9	6	1	1	75	10	1	250	16	2	0	-1	16
23	23	9	6	1	1	75	10	1	251	16	1	0	-1	16
23	23	9	6	1	1	75	10	1	252	6	1	0	-1	16
23	23	9	6	1	1	75	10	1	253	16	4	57.86	49	2
23	23	9	6	1	1	75	10	1	254	6	9	0	-1	16
23	23	9	6	1	1	75	10	1	255	6	6	10.12	49	1
23	23	9	6	1	1	75	10	1	256	6	3	59.7	49	2
23	23	9	6	1	1	75	10	1	257	6	8	85.33	49	2
23	23	9	6	1	1	75	10	1	258	6	6	377.4	49	8
23	23	9	6	1	1	75	10	1	259	6	2	185.58	49	4
23	23	9	6	1	1	75	10	1	260	6	7	86.82	49	2
23	23	9	6	1	1	75	10	1	261	16	9	723.27	49	15
23	23	9	6	1	1	75	10	1	262	6	8	7.61	49	1
23	23	9	6	1	1	75	10	1	263	6	5	709.27	49	15
23	23	9	6	1	1	75	10	1	264	6	9	7.69	49	1
23	23	9	6	1	1	75	10	1	265	16	10	174.92	49	4
23	23	9	6	1	1	75	10	1	266	6	1	0	-1	16
23	23	9	6	1	1	75	10	1	267	6	4	264.85	49	6
23	23	9	6	1	1	75	10	1	268	6	10	60.07	49	2
23	23	9	6	1	1	75	10	1	269	16	3	42.31	49	1
23	23	9	6	1	1	75	10	1	270	6	3	639.41	49	13
23	23	9	6	1	1	75	10	1	271	16	7	0	-1	16
23	23	9	6	1	1	75	10	1	272	6	6	667.14	49	14
23	23	9	6	1	1	75	10	1	273	16	1	7.88	49	1
23	23	9	6	1	1	75	10	1	274	6	8	759.56	49	16
23	23	9	6	1	1	75	10	1	275	6	4	7.59	49	1
23	23	9	6	1	1	75	10	1	275	6	4	757.3	49	16
23	23	9	6	1	1	75	10	1	276	16	10	7.59	49	1
23	23	9	6	1	1	75	10	1	276	16	10	725.14	49	15
23	23	9	6	1	1	75	10	1	277	6	10	7.4	49	1
23	23	9	6	1	1	75	10	1	278	6	2	0	-1	16
23	23	9	6	1	1	75	10	1	279	6	9	210.28	49	5
23	23	9	6	1	1	75	10	1	280	6	1	43.92	49	1
23	23	9	6	1	1	75	10	1	281	6	5	15.09	49	1
23	23	9	6	1	1	75	10	1	281	6	5	624.55	49	13
23	23	9	6	1	1	75	10	1	282	6	7	0	-1	16
23	23	9	6	1	1	75	10	1	283	6	3	280.33	49	6
23	23	9	6	1	1	75	10	1	284	6	2	0	-1	16
23	23	9	6	1	1	75	10	1	285	6	10	12.82	49	1
23	23	9	6	1	1	75	10	1	285	6	10	764.76	49	16
23	23	9	6	1	1	75	10	1	286	6	9	12.44	49	1
23	23	9	6	1	1	75	10	1	286	6	9	770.82	49	16
23	23	9	6	1	1	75	10	1	287	6	8	9.16	49	1
23	23	9	6	1	1	75	10	1	288	16	9	111.24	49	3
23	23	9	6	1	1	75	10	1	289	6	5	567.66	49	12
23	23	9	6	1	1	75	10	1	290	6	1	0	-1	16
23	23	9	6	1	1	75	10	1	291	6	7	209.1	49	5
23	23	9	6	1	1	75	10	1	292	16	2	64.64	49	2
23	23	9	6	1	1	75	10	1	293	6	3	773.88	49	16
23	23	9	6	1	1	75	10	1	294	6	6	8.13	49	1
23	23	9	6	1	1	75	10	1	295	6	4	142.15	49	3
23	23	9	6	1	1	75	10	1	296	16	5	0	-1	16
23	23	9	6	1	1	75	10	1	297	16	4	126.8	49	3
23	23	9	6	1	1	75	10	1	298	6	2	0	-1	16
23	23	9	6	1	1	75	10	1	299	6	9	40.16	49	1
23	23	9	6	1	1	75	10	1	300	6	10	113.74	49	3
23	23	9	6	1	1	75	10	1	301	16	6	115.89	49	3
23	23	9	6	1	1	75	10	1	302	6	1	774.13	49	16
23	23	9	6	1	1	75	10	1	303	6	8	7.63	49	1
23	23	9	6	1	1	75	10	1	304	16	3	259.58	49	6
23	23	9	6	1	1	75	10	1	305	6	6	0	-1	16
23	23	9	6	1	1	75	10	1	306	16	8	80.45	49	2
23	23	9	6	1	1	75	10	1	307	6	7	0	-1	16
23	23	9	6	1	1	75	10	1	308	6	3	93.71	49	2
23	23	9	6	1	1	75	10	1	309	16	7	35.57	49	1
23	23	9	6	1	1	75	10	1	310	16	1	0	-1	16
23	23	9	6	1	1	75	10	1	311	6	5	663.99	49	14
23	23	9	6	1	1	75	10	1	312	6	4	9	49	1
23	23	9	6	1	1	75	10	1	312	6	4	725.87	49	15
23	23	9	6	1	1	75	10	1	313	6	7	7.98	49	1
23	23	9	6	1	1	75	10	1	314	16	9	115.54	49	3
23	23	9	6	1	1	75	10	1	315	6	9	619.1	49	13
23	23	9	6	1	1	75	10	1	316	16	4	0	-1	16
23	23	9	6	1	1	75	10	1	317	6	2	0	-1	16
23	23	9	6	1	1	75	10	1	318	6	4	107.29	49	3
23	23	9	6	1	1	75	10	1	319	16	5	15.37	49	1
23	23	9	6	1	1	75	10	1	320	6	5	616.78	49	13
23	23	9	6	1	1	75	10	1	321	6	1	0	-1	16
23	23	9	6	1	1	75	10	1	322	6	10	69.98	49	2
23	23	9	6	1	1	75	10	1	323	16	10	36.53	49	1
23	23	9	6	1	1	75	10	1	324	16	2	0	-1	16
23	23	9	6	1	1	75	10	1	325	6	6	777.42	49	16
23	23	9	6	1	1	75	10	1	326	6	3	8.21	49	1
23	23	9	6	1	1	75	10	1	326	6	3	762.66	49	16
23	23	9	6	1	1	75	10	1	327	6	8	7.76	49	1
23	23	9	6	1	1	75	10	1	328	6	5	274.01	49	6
23	23	9	6	1	1	75	10	1	329	6	10	722.49	49	15
23	23	9	6	1	1	75	10	1	330	6	4	10.32	49	1
23	23	9	6	1	1	75	10	1	330	6	4	793.62	49	16
23	23	9	6	1	1	75	10	1	331	6	9	10.22	49	1
23	23	9	6	1	1	75	10	1	332	6	2	0	-1	16
23	23	9	6	1	1	75	10	1	333	6	8	66.32	49	2
23	23	9	6	1	1	75	10	1	334	6	7	39.38	49	1
23	23	9	6	1	1	75	10	1	335	6	3	407.19	49	9
23	23	9	6	1	1	75	10	1	336	6	6	707.3	49	15
23	23	9	6	1	1	75	10	1	337	6	1	7.99	49	1
23	23	9	6	1	1	75	10	1	338	6	7	244.5	49	5
23	23	9	6	1	1	75	10	1	339	6	9	157.52	49	4
23	23	9	6	1	1	75	10	1	340	6	4	540.46	49	11
23	23	9	6	1	1	75	10	1	341	6	10	712.19	49	15
23	23	9	6	1	1	75	10	1	342	6	5	8.37	49	1
23	23	9	6	1	1	75	10	1	342	6	5	727.8	49	15
23	23	9	6	1	1	75	10	1	343	16	6	14	49	1
23	23	9	6	1	1	75	10	1	344	16	3	0	-1	16
23	23	9	6	1	1	75	10	1	345	16	8	670.46	49	14
23	23	9	6	1	1	75	10	1	346	6	2	7.73	49	1
23	23	9	6	1	1	75	10	1	347	16	2	0	-1	16
23	23	9	6	1	1	75	10	1	348	6	1	766.55	49	16
23	23	9	6	1	1	75	10	1	349	6	3	10.27	49	1
23	23	9	6	1	1	75	10	1	349	6	3	767.64	49	16
23	23	9	6	1	1	75	10	1	350	6	6	8.89	49	1
23	23	9	6	1	1	75	10	1	350	6	6	710.13	49	15
23	23	9	6	1	1	75	10	1	351	6	8	7.55	49	1
23	23	9	6	1	1	75	10	1	352	6	2	214.28	49	5
23	23	9	6	1	1	75	10	1	353	6	9	29.45	49	1
23	23	9	6	1	1	75	10	1	354	6	10	26.23	49	1
23	23	9	6	1	1	75	10	1	354	6	10	757.55	49	16
23	23	9	6	1	1	75	10	1	355	6	7	9.72	49	1
23	23	9	6	1	1	75	10	1	356	16	9	192.81	49	4
23	23	9	6	1	1	75	10	1	357	6	1	0	-1	16
23	23	9	6	1	1	75	10	1	358	6	6	57.95	49	2
23	23	9	6	1	1	75	10	1	358	6	6	741.05	49	15
23	23	9	6	1	1	75	10	1	359	6	5	7.67	49	1
23	23	9	6	1	1	75	10	1	360	6	8	244.54	49	5
23	23	9	6	1	1	75	10	1	361	6	3	0	-1	16
23	23	9	6	1	1	75	10	1	362	6	4	223.49	49	5
23	23	9	6	1	1	75	10	1	363	6	5	89.75	49	2
23	23	9	6	1	1	75	10	1	364	6	2	168.93	49	4
23	23	9	6	1	1	75	10	1	365	16	10	78.95	49	2
23	23	9	6	1	1	75	10	1	366	6	10	0	-1	16
23	23	9	6	1	1	75	10	1	367	6	9	115.34	49	3
23	23	9	6	1	1	75	10	1	368	6	4	144	49	3
23	23	9	6	1	1	75	10	1	369	6	3	29.06	49	1
23	23	9	6	1	1	75	10	1	370	6	8	58.56	49	2
23	23	9	6	1	1	75	10	1	371	6	7	409.32	49	9
23	23	9	6	1	1	75	10	1	372	6	6	0	-1	16
23	23	9	6	1	1	75	10	1	373	6	1	687.33	49	14
23	23	9	6	1	1	75	10	1	374	6	2	8.11	49	1
23	23	9	6	1	1	75	10	1	375	6	10	79.14	49	2
23	23	9	6	1	1	75	10	1	376	6	9	786.5	49	16
23	23	9	6	1	1	75	10	1	377	6	7	10.47	49	1
23	23	9	6	1	1	75	10	1	378	16	7	0	-1	16
23	23	9	6	1	1	75	10	1	379	16	3	61.04	49	2
23	23	9	6	1	1	75	10	1	380	16	5	0	-1	16
23	23	9	6	1	1	75	10	1	381	6	5	719.09	49	15
23	23	9	6	1	1	75	10	1	382	16	6	7.39	49	1
23	23	9	6	1	1	75	10	1	383	6	8	0	-1	16
23	23	9	6	1	1	75	10	1	384	6	1	376.8	49	8
23	23	9	6	1	1	75	10	1	384	6	1	610.01	49	13
23	23	9	6	1	1	75	10	1	385	6	6	284.95	49	6
23	23	9	6	1	1	75	10	1	386	6	3	0	-1	16
23	23	9	6	1	1	75	10	1	387	16	8	183.28	49	4
23	23	9	6	1	1	75	10	1	388	6	4	626.39	49	13
23	23	9	6	1	1	75	10	1	389	6	7	0	-1	16
23	23	9	6	1	1	75	10	1	390	6	1	175.71	49	4
23	23	9	6	1	1	75	10	1	391	6	2	361.81	49	8
23	23	9	6	1	1	75	10	1	392	6	5	689.88	49	14
23	23	9	6	1	1	75	10	1	393	16	1	0	-1	16
23	23	9	6	1	1	75	10	1	394	6	10	0	-1	16
23	23	9	6	1	1	75	10	1	395	16	4	0	-1	16
23	23	9	6	1	1	75	10	1	396	6	4	0	-1	16
23	23	9	6	1	1	75	10	1	397	6	9	7.82	49	1
23	23	9	6	1	1	75	10	1	398	6	6	30.16	49	1
23	23	9	6	1	1	75	10	1	399	6	3	0	-1	16
23	23	9	6	1	1	75	10	1	400	6	8	10.45	49	1
23	23	9	6	1	1	75	10	1	401	16	5	189.68	49	4
23	23	9	6	1	1	75	10	1	402	6	6	210.28	49	5
23	23	9	6	1	1	75	10	1	403	16	9	736.1	49	15
23	23	9	6	1	1	75	10	1	404	6	10	7.92	49	1
23	23	9	6	1	1	75	10	1	405	6	9	0	-1	16
23	23	9	6	1	1	75	10	1	406	16	2	0	-1	16
23	23	9	6	1	1	75	10	1	407	16	10	0	-1	16
23	23	9	6	1	1	75	10	1	408	6	5	661.53	49	14
23	23	9	6	1	1	75	10	1	409	16	4	0	-1	16
23	23	9	6	1	1	75	10	1	410	16	6	0	-1	16
23	23	9	6	1	1	75	10	1	411	6	7	0	-1	16
23	23	9	6	1	1	75	10	1	412	16	7	0	-1	16
23	23	9	6	1	1	75	10	1	413	6	4	0	-1	16
23	23	9	6	1	1	75	10	1	414	16	8	78.97	49	2
23	23	9	6	1	1	75	10	1	415	6	2	0	-1	16
23	23	9	6	1	1	75	10	1	416	6	1	64.8	49	2
23	23	9	6	1	1	75	10	1	417	6	8	0	-1	16
23	23	9	6	1	1	75	10	1	418	6	3	159.62	49	4
23	23	9	6	1	1	75	10	1	419	6	2	0	-1	16
23	23	9	6	1	1	75	10	1	420	6	10	210.31	49	5
23	23	9	6	1	1	75	10	1	421	16	3	334.14	49	7
23	23	9	6	1	1	75	10	1	422	6	9	695.32	49	14
23	23	9	6	1	1	75	10	1	423	16	1	0	-1	16
23	23	9	6	1	1	75	10	1	424	6	7	0	-1	16
23	23	9	6	1	1	75	10	1	425	6	6	0	-1	16
23	23	9	6	1	1	75	10	1	426	16	6	0	-1	16
23	23	9	6	1	1	75	10	1	427	6	5	507.34	49	11
23	23	9	6	1	1	75	10	1	428	16	7	0	-1	16
23	23	9	6	1	1	75	10	1	429	6	8	0	-1	16
23	23	9	6	1	1	75	10	1	430	6	1	0	-1	16
23	23	9	6	1	1	75	10	1	431	16	1	26.84	49	1
23	23	9	6	1	1	75	10	1	432	6	3	0	-1	16
23	23	9	6	1	1	75	10	1	433	6	4	0	-1	16
23	23	9	6	1	1	75	10	1	434	6	6	0	-1	16
23	23	9	6	1	1	75	10	1	435	6	1	137.8	49	3
23	23	9	6	1	1	75	10	1	436	6	4	63.7	49	2
23	23	9	6	1	1	75	10	1	436	6	4	707.32	49	15
23	23	9	6	1	1	75	10	1	437	6	10	8.5	49	1
23	23	9	6	1	1	75	10	1	437	6	10	679.61	49	14
23	23	9	6	1	1	75	10	1	438	6	5	11.23	49	1
23	23	9	6	1	1	75	10	1	438	6	5	711.2	49	15
23	23	9	6	1	1	75	10	1	439	16	10	7.83	49	1
23	23	9	6	1	1	75	10	1	440	6	7	657.16	49	14
23	23	9	6	1	1	75	10	1	441	6	2	8.35	49	1
23	23	9	6	1	1	75	10	1	442	6	9	109.11	49	3
23	23	9	6	1	1	75	10	1	443	6	8	357.08	49	8
23	23	9	6	1	1	75	10	1	444	6	3	510.49	49	11
23	23	9	6	1	1	75	10	1	445	6	5	0	-1	16
23	23	9	6	1	1	75	10	1	446	6	4	175.69	49	4
23	23	9	6	1	1	75	10	1	447	6	9	57.61	49	2
23	23	9	6	1	1	75	10	1	448	6	2	122.65	49	3
23	23	9	6	1	1	75	10	1	449	6	10	313.15	49	7
23	23	9	6	1	1	75	10	1	450	6	8	0	-1	16
