SubjectNum	Age	Gender	PressedTask	Block Type	Block Repeat Num	Response Rate	Onset	Block	Trial	ImgType	ImgNum	RT	PressedC	FrameC
23	23	9	6	1	1	75	10	1	1	6	5	672.35	49	13
23	23	9	6	1	1	75	10	1	2	6	10	623.72	49	13
23	23	9	6	1	1	75	10	1	3	6	4	660.68	49	14
23	23	9	6	1	1	75	10	1	4	6	9	0	-1	16
23	23	9	6	1	1	75	10	1	5	16	7	187.51	49	4
23	23	9	6	1	1	75	10	1	6	6	2	782.19	49	16
23	23	9	6	1	1	75	10	1	7	6	3	10.36	49	1
23	23	9	6	1	1	75	10	1	7	6	3	619.75	49	13
23	23	9	6	1	1	75	10	1	8	16	9	0	-1	16
23	23	9	6	1	1	75	10	1	9	6	8	726.74	49	15
23	23	9	6	1	1	75	10	1	10	16	2	8.16	49	1
23	23	9	6	1	1	75	10	1	11	6	7	617.2	49	13
23	23	9	6	1	1	75	10	1	12	6	6	0	-1	16
23	23	9	6	1	1	75	10	1	13	6	1	39.31	49	1
23	23	9	6	1	1	75	10	1	14	16	5	110.31	49	3
23	23	9	6	1	1	75	10	1	15	6	5	583.02	49	12
23	23	9	6	1	1	75	10	1	16	6	2	720.38	49	15
23	23	9	6	1	1	75	10	1	17	6	4	8.26	49	1
23	23	9	6	1	1	75	10	1	18	6	9	107.94	49	3
23	23	9	6	1	1	75	10	1	19	6	10	75.57	49	2
23	23	9	6	1	1	75	10	1	20	16	1	0	-1	16
23	23	9	6	1	1	75	10	1	21	6	3	710.38	49	15
23	23	9	6	1	1	75	10	1	22	16	10	7.51	49	1
23	23	9	6	1	1	75	10	1	23	6	7	744.86	49	15
23	23	9	6	1	1	75	10	1	24	16	4	7.56	49	1
23	23	9	6	1	1	75	10	1	25	6	8	679.42	49	14
23	23	9	6	1	1	75	10	1	26	16	3	7.73	49	1
23	23	9	6	1	1	75	10	1	27	6	6	565.09	49	12
23	23	9	6	1	1	75	10	1	28	6	1	731.58	49	15
23	23	9	6	1	1	75	10	1	29	6	6	8.61	49	1
23	23	9	6	1	1	75	10	1	29	6	6	709.57	49	15
23	23	9	6	1	1	75	10	1	30	6	1	8.01	49	1
23	23	9	6	1	1	75	10	1	31	16	6	36.52	49	1
23	23	9	6	1	1	75	10	1	32	6	9	732.84	49	15
23	23	9	6	1	1	75	10	1	33	6	8	13.96	49	1
23	23	9	6	1	1	75	10	1	34	6	10	144.98	49	3
23	23	9	6	1	1	75	10	1	35	16	8	619.3	49	13
23	23	9	6	1	1	75	10	1	36	6	7	0	-1	16
23	23	9	6	1	1	75	10	1	37	6	4	707.79	49	15
23	23	9	6	1	1	75	10	1	38	6	2	0	-1	16
23	23	9	6	1	1	75	10	1	39	6	5	237.68	49	5
23	23	9	6	1	1	75	10	1	40	16	7	85.78	49	2
23	23	9	6	1	1	75	10	1	41	16	4	618.87	49	13
23	23	9	6	1	1	75	10	1	42	6	3	0	-1	16
23	23	9	6	1	1	75	10	1	43	6	7	0	-1	16
23	23	9	6	1	1	75	10	1	44	6	5	232.39	49	5
23	23	9	6	1	1	75	10	1	45	6	2	757.26	49	16
23	23	9	6	1	1	75	10	1	46	6	1	8.03	49	1
23	23	9	6	1	1	75	10	1	46	6	1	767.63	49	16
23	23	9	6	1	1	75	10	1	47	6	9	8.08	49	1
23	23	9	6	1	1	75	10	1	48	6	4	9.58	49	1
23	23	9	6	1	1	75	10	1	48	6	4	257.29	49	6
23	23	9	6	1	1	75	10	1	48	6	4	667.31	49	14
23	23	9	6	1	1	75	10	1	49	16	5	7.61	49	1
23	23	9	6	1	1	75	10	1	50	16	1	0	-1	16
23	23	9	6	1	1	75	10	1	51	6	10	710.65	49	15
23	23	9	6	1	1	75	10	1	52	6	6	7.57	49	1
23	23	9	6	1	1	75	10	1	53	6	3	0	-1	16
23	23	9	6	1	1	75	10	1	54	6	8	34.19	49	1
23	23	9	6	1	1	75	10	1	55	16	2	181.58	49	4
23	23	9	6	1	1	75	10	1	56	6	2	710.08	49	15
23	23	9	6	1	1	75	10	1	57	6	10	659.79	49	14
23	23	9	6	1	1	75	10	1	58	6	9	742.03	49	15
23	23	9	6	1	1	75	10	1	59	16	10	9.01	49	1
23	23	9	6	1	1	75	10	1	60	6	1	611.46	49	13
23	23	9	6	1	1	75	10	1	61	6	8	0	-1	16
23	23	9	6	1	1	75	10	1	62	6	3	184.55	49	4
23	23	9	6	1	1	75	10	1	63	6	6	79.8	49	2
23	23	9	6	1	1	75	10	1	64	6	5	141.39	49	3
23	23	9	6	1	1	75	10	1	65	6	7	0	-1	16
23	23	9	6	1	1	75	10	1	66	6	4	39.8	49	1
23	23	9	6	1	1	75	10	1	67	6	7	60.17	49	2
23	23	9	6	1	1	75	10	1	68	6	4	209.84	49	5
23	23	9	6	1	1	75	10	1	69	6	10	123.37	49	3
23	23	9	6	1	1	75	10	1	70	6	2	0	-1	16
23	23	9	6	1	1	75	10	1	71	6	1	123.21	49	3
23	23	9	6	1	1	75	10	1	72	6	9	88.87	49	2
23	23	9	6	1	1	75	10	1	73	6	5	8.74	49	1
23	23	9	6	1	1	75	10	1	73	6	5	666.28	49	14
23	23	9	6	1	1	75	10	1	74	6	6	10.46	49	1
23	23	9	6	1	1	75	10	1	74	6	6	628.7	49	13
23	23	9	6	1	1	75	10	1	75	6	3	658.31	49	14
23	23	9	6	1	1	75	10	1	76	6	8	0	-1	16
23	23	9	6	1	1	75	10	1	77	6	5	168.38	49	4
23	23	9	6	1	1	75	10	1	77	6	5	708.96	49	15
23	23	9	6	1	1	75	10	1	78	16	9	11.96	49	1
23	23	9	6	1	1	75	10	1	79	16	6	0	-1	16
23	23	9	6	1	1	75	10	1	80	16	3	157.34	49	4
23	23	9	6	1	1	75	10	1	81	16	8	0	-1	16
23	23	9	6	1	1	75	10	1	82	6	4	7.76	49	1
23	23	9	6	1	1	75	10	1	83	16	7	0	-1	16
23	23	9	6	1	1	75	10	1	84	6	10	0	-1	16
23	23	9	6	1	1	75	10	1	85	6	2	0	-1	16
23	23	9	6	1	1	75	10	1	86	6	9	14.04	49	1
23	23	9	6	1	1	75	10	1	87	6	7	65.14	49	2
23	23	9	6	1	1	75	10	1	88	6	8	59.44	49	2
23	23	9	6	1	1	75	10	1	89	6	6	129.03	49	3
23	23	9	6	1	1	75	10	1	90	6	3	189.35	49	4
23	23	9	6	1	1	75	10	1	90	6	3	766.14	49	16
23	23	9	6	1	1	75	10	1	91	6	1	10.38	49	1
23	23	9	6	1	1	75	10	1	92	6	7	29.61	49	1
23	23	9	6	1	1	75	10	1	92	6	7	768.88	49	16
23	23	9	6	1	1	75	10	1	93	16	9	9.23	49	1
23	23	9	6	1	1	75	10	1	94	6	5	638.82	49	13
23	23	9	6	1	1	75	10	1	95	6	2	0	-1	16
23	23	9	6	1	1	75	10	1	96	6	1	10.61	49	1
23	23	9	6	1	1	75	10	1	97	6	9	139	49	3
23	23	9	6	1	1	75	10	1	98	16	2	111.43	49	3
23	23	9	6	1	1	75	10	1	99	6	4	562.49	49	12
23	23	9	6	1	1	75	10	1	100	16	4	0	-1	16
23	23	9	6	1	1	75	10	1	101	6	10	0	-1	16
23	23	9	6	1	1	75	10	1	102	6	3	122.76	49	3
23	23	9	6	1	1	75	10	1	103	6	6	0	-1	16
23	23	9	6	1	1	75	10	1	104	6	8	135.14	49	3
23	23	9	6	1	1	75	10	1	105	6	5	136.54	49	3
23	23	9	6	1	1	75	10	1	105	6	5	357.63	49	8
23	23	9	6	1	1	75	10	1	106	6	9	28.43	49	1
23	23	9	6	1	1	75	10	1	106	6	9	772.7	49	16
23	23	9	6	1	1	75	10	1	107	16	10	8.25	49	1
23	23	9	6	1	1	75	10	1	108	6	4	717.07	49	15
23	23	9	6	1	1	75	10	1	109	16	1	7.71	49	1
23	23	9	6	1	1	75	10	1	110	6	2	0	-1	16
23	23	9	6	1	1	75	10	1	111	6	10	133.69	49	3
23	23	9	6	1	1	75	10	1	111	6	10	759.74	49	16
23	23	9	6	1	1	75	10	1	112	6	6	8.19	49	1
23	23	9	6	1	1	75	10	1	112	6	6	758.16	49	16
23	23	9	6	1	1	75	10	1	113	16	5	7.2	49	1
23	23	9	6	1	1	75	10	1	113	16	5	714.6	49	15
23	23	9	6	1	1	75	10	1	114	6	3	10.36	49	1
23	23	9	6	1	1	75	10	1	115	6	7	0	-1	16
23	23	9	6	1	1	75	10	1	116	16	3	0	-1	16
23	23	9	6	1	1	75	10	1	117	16	6	0	-1	16
23	23	9	6	1	1	75	10	1	118	16	8	0	-1	16
23	23	9	6	1	1	75	10	1	119	6	8	0	-1	16
23	23	9	6	1	1	75	10	1	120	6	1	8.28	49	1
23	23	9	6	1	1	75	10	1	121	16	5	127.12	49	3
23	23	9	6	1	1	75	10	1	122	6	5	0	-1	16
23	23	9	6	1	1	75	10	1	123	6	2	23.77	49	1
23	23	9	6	1	1	75	10	1	124	16	4	94.59	49	2
23	23	9	6	1	1	75	10	1	125	16	9	0	-1	16
23	23	9	6	1	1	75	10	1	126	16	10	0	-1	16
23	23	9	6	1	1	75	10	1	127	6	10	671.57	49	14
23	23	9	6	1	1	75	10	1	128	16	2	8	49	1
23	23	9	6	1	1	75	10	1	129	16	6	0	-1	16
23	23	9	6	1	1	75	10	1	130	16	8	0	-1	16
23	23	9	6	1	1	75	10	1	131	16	7	0	-1	16
23	23	9	6	1	1	75	10	1	132	6	9	758.07	49	16
23	23	9	6	1	1	75	10	1	133	6	4	10.33	49	1
23	23	9	6	1	1	75	10	1	133	6	4	668.5	49	14
23	23	9	6	1	1	75	10	1	134	6	8	0	-1	16
23	23	9	6	1	1	75	10	1	135	6	7	179.5	49	4
23	23	9	6	1	1	75	10	1	136	6	3	622.68	49	13
23	23	9	6	1	1	75	10	1	137	6	6	734.3	49	15
23	23	9	6	1	1	75	10	1	138	6	1	8.14	49	1
23	23	9	6	1	1	75	10	1	139	16	3	0	-1	16
23	23	9	6	1	1	75	10	1	140	16	1	0	-1	16
23	23	9	6	1	1	75	10	1	141	16	6	11.64	49	1
23	23	9	6	1	1	75	10	1	142	6	7	0	-1	16
23	23	9	6	1	1	75	10	1	143	6	2	0	-1	16
23	23	9	6	1	1	75	10	1	144	16	10	0	-1	16
23	23	9	6	1	1	75	10	1	145	6	10	0	-1	16
23	23	9	6	1	1	75	10	1	146	6	4	139.49	49	3
23	23	9	6	1	1	75	10	1	147	6	5	7.69	49	1
23	23	9	6	1	1	75	10	1	147	6	5	718.35	49	15
23	23	9	6	1	1	75	10	1	148	6	1	8.35	49	1
23	23	9	6	1	1	75	10	1	149	6	9	127.1	49	3
23	23	9	6	1	1	75	10	1	150	6	6	186.15	49	4
23	23	9	6	1	1	75	10	1	150	6	6	794.16	49	16
23	23	9	6	1	1	75	10	1	151	6	3	8.35	49	1
23	23	9	6	1	1	75	10	1	151	6	3	657.34	49	14
23	23	9	6	1	1	75	10	1	152	6	8	0	-1	16
23	23	9	6	1	1	75	10	1	153	6	7	20.39	49	1
23	23	9	6	1	1	75	10	1	154	6	9	93.12	49	2
23	23	9	6	1	1	75	10	1	155	6	4	311.78	49	7
23	23	9	6	1	1	75	10	1	155	6	4	793.07	49	16
23	23	9	6	1	1	75	10	1	156	6	2	10.34	49	1
23	23	9	6	1	1	75	10	1	156	6	2	788.2	49	16
23	23	9	6	1	1	75	10	1	157	6	10	10.71	49	1
23	23	9	6	1	1	75	10	1	157	6	10	737.38	49	15
23	23	9	6	1	1	75	10	1	158	6	5	8.28	49	1
23	23	9	6	1	1	75	10	1	158	6	5	709.82	49	15
23	23	9	6	1	1	75	10	1	159	6	1	7.76	49	1
23	23	9	6	1	1	75	10	1	159	6	1	714.3	49	15
23	23	9	6	1	1	75	10	1	160	6	3	7.57	49	1
23	23	9	6	1	1	75	10	1	160	6	3	644.46	49	13
23	23	9	6	1	1	75	10	1	161	16	4	0	-1	16
23	23	9	6	1	1	75	10	1	162	6	6	0	-1	16
23	23	9	6	1	1	75	10	1	163	16	8	8.65	49	1
23	23	9	6	1	1	75	10	1	164	6	8	709.45	49	15
23	23	9	6	1	1	75	10	1	165	6	6	8.1	49	1
23	23	9	6	1	1	75	10	1	166	16	7	10.84	49	1
23	23	9	6	1	1	75	10	1	167	6	4	737.44	49	15
23	23	9	6	1	1	75	10	1	168	6	5	10.02	49	1
23	23	9	6	1	1	75	10	1	168	6	5	634.81	49	13
23	23	9	6	1	1	75	10	1	169	6	10	0	-1	16
23	23	9	6	1	1	75	10	1	170	6	9	7.8	49	1
23	23	9	6	1	1	75	10	1	171	6	7	233.54	49	5
23	23	9	6	1	1	75	10	1	172	16	5	166.81	49	4
23	23	9	6	1	1	75	10	1	173	6	2	112.08	49	3
23	23	9	6	1	1	75	10	1	174	16	2	0	-1	16
23	23	9	6	1	1	75	10	1	175	6	1	0	-1	16
23	23	9	6	1	1	75	10	1	176	6	8	89.35	49	2
23	23	9	6	1	1	75	10	1	176	6	8	694.13	49	14
23	23	9	6	1	1	75	10	1	177	6	3	8.62	49	1
23	23	9	6	1	1	75	10	1	177	6	3	731.37	49	15
23	23	9	6	1	1	75	10	1	178	6	5	10.75	49	1
23	23	9	6	1	1	75	10	1	178	6	5	707.39	49	15
23	23	9	6	1	1	75	10	1	179	6	4	713.6	49	15
23	23	9	6	1	1	75	10	1	180	6	2	8.19	49	1
23	23	9	6	1	1	75	10	1	181	6	10	107.64	49	3
23	23	9	6	1	1	75	10	1	181	6	10	760.09	49	16
23	23	9	6	1	1	75	10	1	182	6	9	7.8	49	1
23	23	9	6	1	1	75	10	1	182	6	9	794.91	49	16
23	23	9	6	1	1	75	10	1	183	6	6	10.49	49	1
23	23	9	6	1	1	75	10	1	183	6	6	657.7	49	14
23	23	9	6	1	1	75	10	1	184	16	9	0	-1	16
23	23	9	6	1	1	75	10	1	185	16	1	0	-1	16
23	23	9	6	1	1	75	10	1	186	6	8	0	-1	16
23	23	9	6	1	1	75	10	1	187	6	7	0	-1	16
23	23	9	6	1	1	75	10	1	188	6	3	0	-1	16
23	23	9	6	1	1	75	10	1	189	6	1	107.13	49	3
23	23	9	6	1	1	75	10	1	190	6	6	210.27	49	5
23	23	9	6	1	1	75	10	1	191	16	3	259.88	49	6
23	23	9	6	1	1	75	10	1	192	6	4	586.37	49	12
23	23	9	6	1	1	75	10	1	193	6	1	0	-1	16
23	23	9	6	1	1	75	10	1	194	6	2	171.85	49	4
23	23	9	6	1	1	75	10	1	195	16	6	0	-1	16
23	23	9	6	1	1	75	10	1	196	6	5	664.39	49	14
23	23	9	6	1	1	75	10	1	197	6	9	0	-1	16
23	23	9	6	1	1	75	10	1	198	16	8	734.84	49	15
23	23	9	6	1	1	75	10	1	199	16	10	7.67	49	1
23	23	9	6	1	1	75	10	1	200	6	10	733.6	49	15
23	23	9	6	1	1	75	10	1	201	6	7	8.04	49	1
23	23	9	6	1	1	75	10	1	202	6	8	0	-1	16
23	23	9	6	1	1	75	10	1	203	16	2	59.75	49	2
23	23	9	6	1	1	75	10	1	204	6	3	610.19	49	13
23	23	9	6	1	1	75	10	1	205	16	7	0	-1	16
23	23	9	6	1	1	75	10	1	206	6	7	790.89	49	16
23	23	9	6	1	1	75	10	1	207	6	1	8.37	49	1
23	23	9	6	1	1	75	10	1	208	6	5	289.57	49	6
23	23	9	6	1	1	75	10	1	209	16	1	110.45	49	3
23	23	9	6	1	1	75	10	1	210	6	10	594.33	49	12
23	23	9	6	1	1	75	10	1	211	6	4	0	-1	16
23	23	9	6	1	1	75	10	1	212	16	4	117.79	49	3
23	23	9	6	1	1	75	10	1	213	6	2	0	-1	16
23	23	9	6	1	1	75	10	1	214	6	9	40.84	49	1
23	23	9	6	1	1	75	10	1	215	16	5	59.55	49	2
23	23	9	6	1	1	75	10	1	216	6	3	659.88	49	14
23	23	9	6	1	1	75	10	1	217	6	6	774.47	49	16
23	23	9	6	1	1	75	10	1	218	6	8	7.97	49	1
23	23	9	6	1	1	75	10	1	219	6	6	124.21	49	3
23	23	9	6	1	1	75	10	1	220	6	4	132.86	49	3
23	23	9	6	1	1	75	10	1	221	16	9	0	-1	16
23	23	9	6	1	1	75	10	1	222	6	9	660.08	49	14
23	23	9	6	1	1	75	10	1	223	6	10	0	-1	16
23	23	9	6	1	1	75	10	1	224	6	1	72.98	49	2
23	23	9	6	1	1	75	10	1	225	16	3	44.69	49	1
23	23	9	6	1	1	75	10	1	226	6	2	740.98	49	15
23	23	9	6	1	1	75	10	1	227	6	7	9.33	49	1
23	23	9	6	1	1	75	10	1	228	6	5	11.74	49	1
23	23	9	6	1	1	75	10	1	229	6	8	675.13	49	14
23	23	9	6	1	1	75	10	1	230	6	3	0	-1	16
23	23	9	6	1	1	75	10	1	231	6	6	665.12	49	14
23	23	9	6	1	1	75	10	1	232	16	6	0	-1	16
23	23	9	6	1	1	75	10	1	233	16	7	0	-1	16
23	23	9	6	1	1	75	10	1	234	6	5	0	-1	16
23	23	9	6	1	1	75	10	1	235	6	7	25.21	49	1
23	23	9	6	1	1	75	10	1	236	16	8	0	-1	16
23	23	9	6	1	1	75	10	1	237	6	1	0	-1	16
23	23	9	6	1	1	75	10	1	238	6	2	42.22	49	1
23	23	9	6	1	1	75	10	1	239	6	8	0	-1	16
23	23	9	6	1	1	75	10	1	240	6	4	683.87	49	14
23	23	9	6	1	1	75	10	1	241	6	9	8.61	49	1
23	23	9	6	1	1	75	10	1	241	6	9	780.3	49	16
23	23	9	6	1	1	75	10	1	242	6	10	7.74	49	1
23	23	9	6	1	1	75	10	1	242	6	10	737.1	49	15
23	23	9	6	1	1	75	10	1	243	6	3	10.45	49	1
23	23	9	6	1	1	75	10	1	244	16	5	94.61	49	2
23	23	9	6	1	1	75	10	1	245	6	7	0	-1	16
23	23	9	6	1	1	75	10	1	246	6	10	279.44	49	6
23	23	9	6	1	1	75	10	1	247	6	4	657.41	49	14
23	23	9	6	1	1	75	10	1	248	6	2	0	-1	16
23	23	9	6	1	1	75	10	1	249	6	5	123.47	49	3
23	23	9	6	1	1	75	10	1	250	16	2	759.83	49	16
23	23	9	6	1	1	75	10	1	251	16	1	7.96	49	1
23	23	9	6	1	1	75	10	1	252	6	1	0	-1	16
23	23	9	6	1	1	75	10	1	253	16	4	275.93	49	6
23	23	9	6	1	1	75	10	1	254	6	9	783.91	49	16
23	23	9	6	1	1	75	10	1	255	6	6	8.35	49	1
23	23	9	6	1	1	75	10	1	256	6	3	0	-1	16
23	23	9	6	1	1	75	10	1	257	6	8	21.93	49	1
23	23	9	6	1	1	75	10	1	258	6	6	0	-1	16
23	23	9	6	1	1	75	10	1	259	6	2	34.62	49	1
23	23	9	6	1	1	75	10	1	260	6	7	220.62	49	5
23	23	9	6	1	1	75	10	1	261	16	9	0	-1	16
23	23	9	6	1	1	75	10	1	262	6	8	0	-1	16
23	23	9	6	1	1	75	10	1	263	6	5	209.41	49	5
23	23	9	6	1	1	75	10	1	264	6	9	714.94	49	15
23	23	9	6	1	1	75	10	1	265	16	10	7.62	49	1
23	23	9	6	1	1	75	10	1	266	6	1	657.47	49	14
23	23	9	6	1	1	75	10	1	267	6	4	0	-1	16
23	23	9	6	1	1	75	10	1	268	6	10	8.29	49	1
23	23	9	6	1	1	75	10	1	269	16	3	0	-1	16
23	23	9	6	1	1	75	10	1	270	6	3	688.26	49	14
23	23	9	6	1	1	75	10	1	271	16	7	11.16	49	1
23	23	9	6	1	1	75	10	1	272	6	6	767.26	49	16
23	23	9	6	1	1	75	10	1	273	16	1	7.82	49	1
23	23	9	6	1	1	75	10	1	274	6	8	757.96	49	16
23	23	9	6	1	1	75	10	1	275	6	4	7.93	49	1
23	23	9	6	1	1	75	10	1	275	6	4	711.47	49	15
23	23	9	6	1	1	75	10	1	276	16	10	7.8	49	1
23	23	9	6	1	1	75	10	1	277	6	10	0	-1	16
23	23	9	6	1	1	75	10	1	278	6	2	60.27	49	2
23	23	9	6	1	1	75	10	1	279	6	9	107.34	49	3
23	23	9	6	1	1	75	10	1	280	6	1	0	-1	16
23	23	9	6	1	1	75	10	1	281	6	5	57.66	49	2
23	23	9	6	1	1	75	10	1	281	6	5	576.5	49	12
23	23	9	6	1	1	75	10	1	282	6	7	0	-1	16
23	23	9	6	1	1	75	10	1	283	6	3	739.81	49	15
23	23	9	6	1	1	75	10	1	284	6	2	7.92	49	1
23	23	9	6	1	1	75	10	1	284	6	2	794.98	49	16
23	23	9	6	1	1	75	10	1	285	6	10	7.78	49	1
23	23	9	6	1	1	75	10	1	286	6	9	172.14	49	4
23	23	9	6	1	1	75	10	1	287	6	8	270.83	49	6
23	23	9	6	1	1	75	10	1	288	16	9	277.67	49	6
23	23	9	6	1	1	75	10	1	289	6	5	557.24	49	12
23	23	9	6	1	1	75	10	1	290	6	1	0	-1	16
23	23	9	6	1	1	75	10	1	291	6	7	159.87	49	4
23	23	9	6	1	1	75	10	1	292	16	2	365.66	49	8
23	23	9	6	1	1	75	10	1	293	6	3	665.94	49	14
23	23	9	6	1	1	75	10	1	294	6	6	717.59	49	15
23	23	9	6	1	1	75	10	1	295	6	4	8.25	49	1
23	23	9	6	1	1	75	10	1	295	6	4	707.25	49	15
23	23	9	6	1	1	75	10	1	296	16	5	10.14	49	1
23	23	9	6	1	1	75	10	1	297	16	4	0	-1	16
23	23	9	6	1	1	75	10	1	298	6	2	0	-1	16
23	23	9	6	1	1	75	10	1	299	6	9	84.57	49	2
23	23	9	6	1	1	75	10	1	299	6	9	763.94	49	16
23	23	9	6	1	1	75	10	1	300	6	10	7.76	49	1
23	23	9	6	1	1	75	10	1	301	16	6	60.7	49	2
23	23	9	6	1	1	75	10	1	302	6	1	783.89	49	16
23	23	9	6	1	1	75	10	1	303	6	8	7.72	49	1
23	23	9	6	1	1	75	10	1	304	16	3	0	-1	16
23	23	9	6	1	1	75	10	1	305	6	6	709.31	49	15
23	23	9	6	1	1	75	10	1	306	16	8	10.77	49	1
23	23	9	6	1	1	75	10	1	307	6	7	0	-1	16
23	23	9	6	1	1	75	10	1	308	6	3	513.6	49	11
23	23	9	6	1	1	75	10	1	309	16	7	0	-1	16
23	23	9	6	1	1	75	10	1	310	16	1	0	-1	16
23	23	9	6	1	1	75	10	1	311	6	5	0	-1	16
23	23	9	6	1	1	75	10	1	312	6	4	586.15	49	12
23	23	9	6	1	1	75	10	1	313	6	7	0	-1	16
23	23	9	6	1	1	75	10	1	314	16	9	0	-1	16
23	23	9	6	1	1	75	10	1	315	6	9	584.66	49	12
23	23	9	6	1	1	75	10	1	316	16	4	0	-1	16
23	23	9	6	1	1	75	10	1	317	6	2	0	-1	16
23	23	9	6	1	1	75	10	1	318	6	4	93.79	49	2
23	23	9	6	1	1	75	10	1	319	16	5	122.44	49	3
23	23	9	6	1	1	75	10	1	320	6	5	660.36	49	14
23	23	9	6	1	1	75	10	1	321	6	1	0	-1	16
23	23	9	6	1	1	75	10	1	322	6	10	83.97	49	2
23	23	9	6	1	1	75	10	1	323	16	10	0	-1	16
23	23	9	6	1	1	75	10	1	324	16	2	0	-1	16
23	23	9	6	1	1	75	10	1	325	6	6	0	-1	16
23	23	9	6	1	1	75	10	1	326	6	3	173.6	49	4
23	23	9	6	1	1	75	10	1	327	6	8	0	-1	16
23	23	9	6	1	1	75	10	1	328	6	5	59.42	49	2
23	23	9	6	1	1	75	10	1	329	6	10	721.14	49	15
23	23	9	6	1	1	75	10	1	330	6	4	12.44	49	1
23	23	9	6	1	1	75	10	1	331	6	9	0	-1	16
23	23	9	6	1	1	75	10	1	332	6	2	0	-1	16
23	23	9	6	1	1	75	10	1	333	6	8	227.33	49	5
23	23	9	6	1	1	75	10	1	334	6	7	136.58	49	3
23	23	9	6	1	1	75	10	1	335	6	3	30.02	49	1
23	23	9	6	1	1	75	10	1	335	6	3	788.01	49	16
23	23	9	6	1	1	75	10	1	336	6	6	8.1	49	1
23	23	9	6	1	1	75	10	1	336	6	6	772.98	49	16
23	23	9	6	1	1	75	10	1	337	6	1	10.52	49	1
23	23	9	6	1	1	75	10	1	337	6	1	757.63	49	16
23	23	9	6	1	1	75	10	1	338	6	7	7.87	49	1
23	23	9	6	1	1	75	10	1	339	6	9	9.7	49	1
23	23	9	6	1	1	75	10	1	340	6	4	90.05	49	2
23	23	9	6	1	1	75	10	1	340	6	4	791.79	49	16
23	23	9	6	1	1	75	10	1	341	6	10	8.53	49	1
23	23	9	6	1	1	75	10	1	342	6	5	107.17	49	3
23	23	9	6	1	1	75	10	1	343	16	6	32.51	49	1
23	23	9	6	1	1	75	10	1	344	16	3	0	-1	16
23	23	9	6	1	1	75	10	1	345	16	8	0	-1	16
23	23	9	6	1	1	75	10	1	346	6	2	0	-1	16
23	23	9	6	1	1	75	10	1	347	16	2	62.5	49	2
23	23	9	6	1	1	75	10	1	348	6	1	0	-1	16
23	23	9	6	1	1	75	10	1	349	6	3	124.71	49	3
23	23	9	6	1	1	75	10	1	350	6	6	144.49	49	3
23	23	9	6	1	1	75	10	1	350	6	6	737.07	49	15
23	23	9	6	1	1	75	10	1	351	6	8	7.64	49	1
23	23	9	6	1	1	75	10	1	352	6	2	167.38	49	4
23	23	9	6	1	1	75	10	1	353	6	9	234.9	49	5
23	23	9	6	1	1	75	10	1	354	6	10	665.62	49	14
23	23	9	6	1	1	75	10	1	355	6	7	10.64	49	1
23	23	9	6	1	1	75	10	1	356	16	9	0	-1	16
23	23	9	6	1	1	75	10	1	357	6	1	731.32	49	15
23	23	9	6	1	1	75	10	1	358	6	6	8.05	49	1
23	23	9	6	1	1	75	10	1	359	6	5	162.75	49	4
23	23	9	6	1	1	75	10	1	360	6	8	0	-1	16
23	23	9	6	1	1	75	10	1	361	6	3	74.78	49	2
23	23	9	6	1	1	75	10	1	362	6	4	8.28	49	1
23	23	9	6	1	1	75	10	1	362	6	4	710.34	49	15
23	23	9	6	1	1	75	10	1	363	6	5	7.97	49	1
23	23	9	6	1	1	75	10	1	363	6	5	759.61	49	16
23	23	9	6	1	1	75	10	1	364	6	2	7.93	49	1
23	23	9	6	1	1	75	10	1	364	6	2	709.39	49	15
23	23	9	6	1	1	75	10	1	365	16	10	7.67	49	1
23	23	9	6	1	1	75	10	1	366	6	10	717.16	49	15
23	23	9	6	1	1	75	10	1	367	6	9	10.2	49	1
23	23	9	6	1	1	75	10	1	368	6	4	60.27	49	2
23	23	9	6	1	1	75	10	1	368	6	4	310.3	49	7
23	23	9	6	1	1	75	10	1	369	6	3	118.16	49	3
23	23	9	6	1	1	75	10	1	370	6	8	72	49	2
23	23	9	6	1	1	75	10	1	371	6	7	143.64	49	3
23	23	9	6	1	1	75	10	1	372	6	6	190.95	49	4
23	23	9	6	1	1	75	10	1	373	6	1	79.57	49	2
23	23	9	6	1	1	75	10	1	374	6	2	238.24	49	5
23	23	9	6	1	1	75	10	1	375	6	10	193.44	49	4
23	23	9	6	1	1	75	10	1	376	6	9	577.73	49	12
23	23	9	6	1	1	75	10	1	377	6	7	711.92	49	15
23	23	9	6	1	1	75	10	1	378	16	7	7.79	49	1
23	23	9	6	1	1	75	10	1	378	16	7	694.99	49	14
23	23	9	6	1	1	75	10	1	379	16	3	10.38	49	1
23	23	9	6	1	1	75	10	1	380	16	5	0	-1	16
23	23	9	6	1	1	75	10	1	381	6	5	759.63	49	16
23	23	9	6	1	1	75	10	1	382	16	6	7.79	49	1
23	23	9	6	1	1	75	10	1	383	6	8	775.47	49	16
23	23	9	6	1	1	75	10	1	384	6	1	10.6	49	1
23	23	9	6	1	1	75	10	1	385	6	6	63.3	49	2
23	23	9	6	1	1	75	10	1	385	6	6	725.7	49	15
23	23	9	6	1	1	75	10	1	386	6	3	8.39	49	1
23	23	9	6	1	1	75	10	1	386	6	3	709.16	49	15
23	23	9	6	1	1	75	10	1	387	16	8	7.88	49	1
23	23	9	6	1	1	75	10	1	388	6	4	760.22	49	16
23	23	9	6	1	1	75	10	1	389	6	7	7.77	49	1
23	23	9	6	1	1	75	10	1	390	6	1	0	-1	16
23	23	9	6	1	1	75	10	1	391	6	2	124.21	49	3
23	23	9	6	1	1	75	10	1	392	6	5	57.67	49	2
23	23	9	6	1	1	75	10	1	392	6	5	792.84	49	16
23	23	9	6	1	1	75	10	1	393	16	1	8.37	49	1
23	23	9	6	1	1	75	10	1	394	6	10	159.21	49	4
23	23	9	6	1	1	75	10	1	395	16	4	0	-1	16
23	23	9	6	1	1	75	10	1	396	6	4	0	-1	16
23	23	9	6	1	1	75	10	1	397	6	9	18.15	49	1
23	23	9	6	1	1	75	10	1	398	6	6	0	-1	16
23	23	9	6	1	1	75	10	1	399	6	3	61.88	49	2
23	23	9	6	1	1	75	10	1	400	6	8	794.66	49	16
23	23	9	6	1	1	75	10	1	401	16	5	8.57	49	1
23	23	9	6	1	1	75	10	1	402	6	6	0	-1	16
23	23	9	6	1	1	75	10	1	403	16	9	0	-1	16
23	23	9	6	1	1	75	10	1	404	6	10	0	-1	16
23	23	9	6	1	1	75	10	1	405	6	9	0	-1	16
23	23	9	6	1	1	75	10	1	406	16	2	209.59	49	5
23	23	9	6	1	1	75	10	1	407	16	10	0	-1	16
23	23	9	6	1	1	75	10	1	408	6	5	545.35	49	11
23	23	9	6	1	1	75	10	1	409	16	4	0	-1	16
23	23	9	6	1	1	75	10	1	410	16	6	0	-1	16
23	23	9	6	1	1	75	10	1	411	6	7	0	-1	16
23	23	9	6	1	1	75	10	1	412	16	7	26.22	49	1
23	23	9	6	1	1	75	10	1	413	6	4	671.97	49	14
23	23	9	6	1	1	75	10	1	414	16	8	10.28	49	1
23	23	9	6	1	1	75	10	1	415	6	2	0	-1	16
23	23	9	6	1	1	75	10	1	416	6	1	30.67	49	1
23	23	9	6	1	1	75	10	1	417	6	8	329.81	49	7
23	23	9	6	1	1	75	10	1	418	6	3	743.14	49	15
23	23	9	6	1	1	75	10	1	419	6	2	7.88	49	1
23	23	9	6	1	1	75	10	1	420	6	10	93.48	49	2
23	23	9	6	1	1	75	10	1	420	6	10	781.6	49	16
23	23	9	6	1	1	75	10	1	421	16	3	12.02	49	1
23	23	9	6	1	1	75	10	1	422	6	9	607.55	49	13
23	23	9	6	1	1	75	10	1	423	16	1	0	-1	16
23	23	9	6	1	1	75	10	1	424	6	7	793.45	49	16
23	23	9	6	1	1	75	10	1	425	6	6	10.86	49	1
23	23	9	6	1	1	75	10	1	426	16	6	10.34	49	1
23	23	9	6	1	1	75	10	1	427	6	5	639.05	49	13
23	23	9	6	1	1	75	10	1	428	16	7	0	-1	16
23	23	9	6	1	1	75	10	1	429	6	8	759.3	49	16
23	23	9	6	1	1	75	10	1	430	6	1	7.68	49	1
23	23	9	6	1	1	75	10	1	431	16	1	0	-1	16
23	23	9	6	1	1	75	10	1	432	6	3	0	-1	16
23	23	9	6	1	1	75	10	1	433	6	4	272.46	49	6
23	23	9	6	1	1	75	10	1	434	6	6	58.3	49	2
23	23	9	6	1	1	75	10	1	435	6	1	159.6	49	4
23	23	9	6	1	1	75	10	1	436	6	4	260.48	49	6
23	23	9	6	1	1	75	10	1	437	6	10	110.78	49	3
23	23	9	6	1	1	75	10	1	437	6	10	778.06	49	16
23	23	9	6	1	1	75	10	1	438	6	5	10.26	49	1
23	23	9	6	1	1	75	10	1	438	6	5	686.06	49	14
23	23	9	6	1	1	75	10	1	439	16	10	9.29	49	1
23	23	9	6	1	1	75	10	1	440	6	7	0	-1	16
23	23	9	6	1	1	75	10	1	441	6	2	143.37	49	3
23	23	9	6	1	1	75	10	1	442	6	9	220.12	49	5
23	23	9	6	1	1	75	10	1	443	6	8	757.67	49	16
23	23	9	6	1	1	75	10	1	444	6	3	9.19	49	1
23	23	9	6	1	1	75	10	1	444	6	3	713.27	49	15
23	23	9	6	1	1	75	10	1	445	6	5	8.55	49	1
23	23	9	6	1	1	75	10	1	445	6	5	585.69	49	12
23	23	9	6	1	1	75	10	1	446	6	4	744.11	49	15
23	23	9	6	1	1	75	10	1	447	6	9	8.04	49	1
23	23	9	6	1	1	75	10	1	448	6	2	183.04	49	4
23	23	9	6	1	1	75	10	1	449	6	10	67.43	49	2
23	23	9	6	1	1	75	10	1	449	6	10	682.49	49	14
23	23	9	6	1	1	75	10	1	450	6	8	619.08	49	13
