SubjectNum	Age	Gender	PressedTask	Block Type	Block Repeat Num	Response Rate	Onset	Block	Trial	ImgType	ImgNum	RT	PressedC	FrameC
14	39	9	6	2	1	75	10	1	1	6	5	840.81	49	16
14	39	9	6	2	1	75	10	1	2	6	10	10.66	49	1
14	39	9	6	2	1	75	10	1	3	6	4	114.21	49	3
14	39	9	6	2	1	75	10	1	3	6	4	765.08	49	16
14	39	9	6	2	1	75	10	1	4	6	9	10.49	49	1
14	39	9	6	2	1	75	10	1	5	16	7	139.08	49	3
14	39	9	6	2	1	75	10	1	6	6	2	757.86	49	16
14	39	9	6	2	1	75	10	1	7	6	3	9.82	49	1
14	39	9	6	2	1	75	10	1	8	16	9	109.73	49	3
14	39	9	6	2	1	75	10	1	9	6	8	662.43	49	14
14	39	9	6	2	1	75	10	1	10	16	2	10.09	49	1
14	39	9	6	2	1	75	10	1	11	6	7	0	-1	16
14	39	9	6	2	1	75	10	1	12	6	6	58.09	49	2
14	39	9	6	2	1	75	10	1	12	6	6	792.77	49	16
14	39	9	6	2	1	75	10	1	13	6	1	8.96	49	1
14	39	9	6	2	1	75	10	1	14	16	5	174.26	49	4
14	39	9	6	2	1	75	10	1	15	6	5	672.99	49	14
14	39	9	6	2	1	75	10	1	16	6	2	7.87	49	1
14	39	9	6	2	1	75	10	1	17	6	4	28.26	49	1
14	39	9	6	2	1	75	10	1	17	6	4	786.34	49	16
14	39	9	6	2	1	75	10	1	18	6	9	11.84	49	1
14	39	9	6	2	1	75	10	1	19	6	10	410.3	49	9
14	39	9	6	2	1	75	10	1	20	16	1	187.66	49	4
14	39	9	6	2	1	75	10	1	21	6	3	766.47	49	16
14	39	9	6	2	1	75	10	1	22	16	10	10.05	49	1
14	39	9	6	2	1	75	10	1	23	6	7	0	-1	16
14	39	9	6	2	1	75	10	1	24	16	4	0	-1	16
14	39	9	6	2	1	75	10	1	25	6	8	0	-1	16
14	39	9	6	2	1	75	10	1	26	16	3	166.17	49	4
14	39	9	6	2	1	75	10	1	27	6	6	638.02	49	13
14	39	9	6	2	1	75	10	1	28	6	1	0	-1	16
14	39	9	6	2	1	75	10	1	29	6	6	188.54	49	4
14	39	9	6	2	1	75	10	1	30	6	1	116.82	49	3
14	39	9	6	2	1	75	10	1	31	16	6	73.86	49	2
14	39	9	6	2	1	75	10	1	31	16	6	310.96	49	7
14	39	9	6	2	1	75	10	1	32	6	9	0	-1	16
14	39	9	6	2	1	75	10	1	33	6	8	14.89	49	1
14	39	9	6	2	1	75	10	1	34	6	10	126.47	49	3
14	39	9	6	2	1	75	10	1	35	16	8	188.86	49	4
14	39	9	6	2	1	75	10	1	36	6	7	0	-1	16
14	39	9	6	2	1	75	10	1	37	6	4	114.97	49	3
14	39	9	6	2	1	75	10	1	38	6	2	8.4	49	1
14	39	9	6	2	1	75	10	1	38	6	2	209.33	49	5
14	39	9	6	2	1	75	10	1	39	6	5	285.38	49	6
14	39	9	6	2	1	75	10	1	40	16	7	82.42	49	2
14	39	9	6	2	1	75	10	1	41	16	4	0	-1	16
14	39	9	6	2	1	75	10	1	42	6	3	760.18	49	16
14	39	9	6	2	1	75	10	1	43	6	7	12.83	49	1
14	39	9	6	2	1	75	10	1	44	6	5	110.28	49	3
14	39	9	6	2	1	75	10	1	45	6	2	10.75	49	1
14	39	9	6	2	1	75	10	1	46	6	1	10.78	49	1
14	39	9	6	2	1	75	10	1	47	6	9	178.84	49	4
14	39	9	6	2	1	75	10	1	48	6	4	30.27	49	1
14	39	9	6	2	1	75	10	1	49	16	5	7.76	49	1
14	39	9	6	2	1	75	10	1	50	16	1	0	-1	16
14	39	9	6	2	1	75	10	1	51	6	10	769.92	49	16
14	39	9	6	2	1	75	10	1	52	6	6	8.41	49	1
14	39	9	6	2	1	75	10	1	52	6	6	764.76	49	16
14	39	9	6	2	1	75	10	1	53	6	3	9.01	49	1
14	39	9	6	2	1	75	10	1	54	6	8	71.2	49	2
14	39	9	6	2	1	75	10	1	55	16	2	160.18	49	4
14	39	9	6	2	1	75	10	1	56	6	2	0	-1	16
14	39	9	6	2	1	75	10	1	57	6	10	11.76	49	1
14	39	9	6	2	1	75	10	1	57	6	10	782.95	49	16
14	39	9	6	2	1	75	10	1	58	6	9	9.79	49	1
14	39	9	6	2	1	75	10	1	58	6	9	731.23	49	15
14	39	9	6	2	1	75	10	1	59	16	10	8.49	49	1
14	39	9	6	2	1	75	10	1	60	6	1	60.77	49	2
14	39	9	6	2	1	75	10	1	61	6	8	257.86	49	6
14	39	9	6	2	1	75	10	1	61	6	8	461.99	49	10
14	39	9	6	2	1	75	10	1	62	6	3	0	-1	16
14	39	9	6	2	1	75	10	1	63	6	6	107.47	49	3
14	39	9	6	2	1	75	10	1	63	6	6	777.77	49	16
14	39	9	6	2	1	75	10	1	64	6	5	8.36	49	1
14	39	9	6	2	1	75	10	1	65	6	7	209.91	49	5
14	39	9	6	2	1	75	10	1	66	6	4	167.24	49	4
14	39	9	6	2	1	75	10	1	67	6	7	42.32	49	1
14	39	9	6	2	1	75	10	1	68	6	4	123.54	49	3
14	39	9	6	2	1	75	10	1	69	6	10	76.05	49	2
14	39	9	6	2	1	75	10	1	70	6	2	161.08	49	4
14	39	9	6	2	1	75	10	1	71	6	1	65.95	49	2
14	39	9	6	2	1	75	10	1	71	6	1	785.4	49	16
14	39	9	6	2	1	75	10	1	72	6	9	9.14	49	1
14	39	9	6	2	1	75	10	1	72	6	9	783.51	49	16
14	39	9	6	2	1	75	10	1	73	6	5	8.28	49	1
14	39	9	6	2	1	75	10	1	74	6	6	8.42	49	1
14	39	9	6	2	1	75	10	1	74	6	6	779.32	49	16
14	39	9	6	2	1	75	10	1	75	6	3	7.95	49	1
14	39	9	6	2	1	75	10	1	76	6	8	169.58	49	4
14	39	9	6	2	1	75	10	1	77	6	5	738.49	49	15
14	39	9	6	2	1	75	10	1	78	16	9	8.83	49	1
14	39	9	6	2	1	75	10	1	79	16	6	0	-1	16
14	39	9	6	2	1	75	10	1	80	16	3	0	-1	16
14	39	9	6	2	1	75	10	1	81	16	8	0	-1	16
14	39	9	6	2	1	75	10	1	82	6	4	709.92	49	15
14	39	9	6	2	1	75	10	1	83	16	7	9.29	49	1
14	39	9	6	2	1	75	10	1	84	6	10	0	-1	16
14	39	9	6	2	1	75	10	1	85	6	2	57.62	49	2
14	39	9	6	2	1	75	10	1	85	6	2	774.67	49	16
14	39	9	6	2	1	75	10	1	86	6	9	8.19	49	1
14	39	9	6	2	1	75	10	1	86	6	9	790.3	49	16
14	39	9	6	2	1	75	10	1	87	6	7	7.9	49	1
14	39	9	6	2	1	75	10	1	88	6	8	7.61	49	1
14	39	9	6	2	1	75	10	1	89	6	6	44	49	1
14	39	9	6	2	1	75	10	1	90	6	3	13.14	49	1
14	39	9	6	2	1	75	10	1	91	6	1	37.03	49	1
14	39	9	6	2	1	75	10	1	92	6	7	110.55	49	3
14	39	9	6	2	1	75	10	1	93	16	9	367.85	49	8
14	39	9	6	2	1	75	10	1	94	6	5	678.14	49	14
14	39	9	6	2	1	75	10	1	95	6	2	9.55	49	1
14	39	9	6	2	1	75	10	1	95	6	2	792.77	49	16
14	39	9	6	2	1	75	10	1	96	6	1	8.47	49	1
14	39	9	6	2	1	75	10	1	97	6	9	68.96	49	2
14	39	9	6	2	1	75	10	1	98	16	2	39.71	49	1
14	39	9	6	2	1	75	10	1	99	6	4	718.05	49	15
14	39	9	6	2	1	75	10	1	100	16	4	8.17	49	1
14	39	9	6	2	1	75	10	1	101	6	10	0	-1	16
14	39	9	6	2	1	75	10	1	102	6	3	273.18	49	6
14	39	9	6	2	1	75	10	1	103	6	6	59.93	49	2
14	39	9	6	2	1	75	10	1	103	6	6	728.33	49	15
14	39	9	6	2	1	75	10	1	104	6	8	11.8	49	1
14	39	9	6	2	1	75	10	1	105	6	5	110.37	49	3
14	39	9	6	2	1	75	10	1	106	6	9	38.72	49	1
14	39	9	6	2	1	75	10	1	106	6	9	783.63	49	16
14	39	9	6	2	1	75	10	1	107	16	10	8.84	49	1
14	39	9	6	2	1	75	10	1	107	16	10	210.13	49	5
14	39	9	6	2	1	75	10	1	108	6	4	9.1	49	1
14	39	9	6	2	1	75	10	1	109	16	1	0	-1	16
14	39	9	6	2	1	75	10	1	110	6	2	0	-1	16
14	39	9	6	2	1	75	10	1	111	6	10	70.87	49	2
14	39	9	6	2	1	75	10	1	112	6	6	325.46	49	7
14	39	9	6	2	1	75	10	1	113	16	5	207.31	49	5
14	39	9	6	2	1	75	10	1	114	6	3	591.55	49	12
14	39	9	6	2	1	75	10	1	115	6	7	0	-1	16
14	39	9	6	2	1	75	10	1	116	16	3	73.61	49	2
14	39	9	6	2	1	75	10	1	117	16	6	0	-1	16
14	39	9	6	2	1	75	10	1	118	16	8	0	-1	16
14	39	9	6	2	1	75	10	1	119	6	8	667.99	49	14
14	39	9	6	2	1	75	10	1	120	6	1	8.77	49	1
14	39	9	6	2	1	75	10	1	121	16	5	11.32	49	1
14	39	9	6	2	1	75	10	1	122	6	5	736.68	49	15
14	39	9	6	2	1	75	10	1	123	6	2	7.82	49	1
14	39	9	6	2	1	75	10	1	124	16	4	34.78	49	1
14	39	9	6	2	1	75	10	1	125	16	9	0	-1	16
14	39	9	6	2	1	75	10	1	126	16	10	0	-1	16
14	39	9	6	2	1	75	10	1	127	6	10	0	-1	16
14	39	9	6	2	1	75	10	1	128	16	2	168.33	49	4
14	39	9	6	2	1	75	10	1	129	16	6	0	-1	16
14	39	9	6	2	1	75	10	1	130	16	8	0	-1	16
14	39	9	6	2	1	75	10	1	131	16	7	0	-1	16
14	39	9	6	2	1	75	10	1	132	6	9	760.23	49	16
14	39	9	6	2	1	75	10	1	133	6	4	8.3	49	1
14	39	9	6	2	1	75	10	1	133	6	4	788.97	49	16
14	39	9	6	2	1	75	10	1	134	6	8	8.23	49	1
14	39	9	6	2	1	75	10	1	135	6	7	107.01	49	3
14	39	9	6	2	1	75	10	1	135	6	7	307.36	49	7
14	39	9	6	2	1	75	10	1	136	6	3	225.44	49	5
14	39	9	6	2	1	75	10	1	137	6	6	120.79	49	3
14	39	9	6	2	1	75	10	1	138	6	1	8.42	49	1
14	39	9	6	2	1	75	10	1	139	16	3	110.41	49	3
14	39	9	6	2	1	75	10	1	140	16	1	0	-1	16
14	39	9	6	2	1	75	10	1	141	16	6	0	-1	16
14	39	9	6	2	1	75	10	1	142	6	7	0	-1	16
14	39	9	6	2	1	75	10	1	143	6	2	39.8	49	1
14	39	9	6	2	1	75	10	1	144	16	10	124.24	49	3
14	39	9	6	2	1	75	10	1	145	6	10	0	-1	16
14	39	9	6	2	1	75	10	1	146	6	4	72.39	49	2
14	39	9	6	2	1	75	10	1	147	6	5	8.03	49	1
14	39	9	6	2	1	75	10	1	147	6	5	210.09	49	5
14	39	9	6	2	1	75	10	1	148	6	1	176.5	49	4
14	39	9	6	2	1	75	10	1	149	6	9	169.8	49	4
14	39	9	6	2	1	75	10	1	150	6	6	80.27	49	2
14	39	9	6	2	1	75	10	1	151	6	3	210.29	49	5
14	39	9	6	2	1	75	10	1	151	6	3	410.48	49	9
14	39	9	6	2	1	75	10	1	152	6	8	0	-1	16
14	39	9	6	2	1	75	10	1	153	6	7	118.84	49	3
14	39	9	6	2	1	75	10	1	154	6	9	384.6	49	8
14	39	9	6	2	1	75	10	1	155	6	4	319.64	49	7
14	39	9	6	2	1	75	10	1	156	6	2	226.63	49	5
14	39	9	6	2	1	75	10	1	157	6	10	308.17	49	7
14	39	9	6	2	1	75	10	1	158	6	5	0	-1	16
14	39	9	6	2	1	75	10	1	159	6	1	261.14	49	6
14	39	9	6	2	1	75	10	1	160	6	3	757.81	49	16
14	39	9	6	2	1	75	10	1	161	16	4	8.46	49	1
14	39	9	6	2	1	75	10	1	162	6	6	713.08	49	15
14	39	9	6	2	1	75	10	1	163	16	8	7.99	49	1
14	39	9	6	2	1	75	10	1	164	6	8	620.77	49	13
14	39	9	6	2	1	75	10	1	165	6	6	9.98	49	1
14	39	9	6	2	1	75	10	1	166	16	7	290.92	49	6
14	39	9	6	2	1	75	10	1	167	6	4	612.94	49	13
14	39	9	6	2	1	75	10	1	168	6	5	0	-1	16
14	39	9	6	2	1	75	10	1	169	6	10	237.87	49	5
14	39	9	6	2	1	75	10	1	170	6	9	289.18	49	6
14	39	9	6	2	1	75	10	1	171	6	7	225.93	49	5
14	39	9	6	2	1	75	10	1	172	16	5	241.67	49	5
14	39	9	6	2	1	75	10	1	173	6	2	626.69	49	13
14	39	9	6	2	1	75	10	1	174	16	2	8.41	49	1
14	39	9	6	2	1	75	10	1	175	6	1	695.35	49	14
14	39	9	6	2	1	75	10	1	176	6	8	8.52	49	1
14	39	9	6	2	1	75	10	1	177	6	3	20.28	49	1
14	39	9	6	2	1	75	10	1	178	6	5	60.89	49	2
14	39	9	6	2	1	75	10	1	179	6	4	59.97	49	2
14	39	9	6	2	1	75	10	1	180	6	2	60.34	49	2
14	39	9	6	2	1	75	10	1	181	6	10	160.57	49	4
14	39	9	6	2	1	75	10	1	182	6	9	158.58	49	4
14	39	9	6	2	1	75	10	1	183	6	6	60.32	49	2
14	39	9	6	2	1	75	10	1	184	16	9	333.39	49	7
14	39	9	6	2	1	75	10	1	184	16	9	557.15	49	12
14	39	9	6	2	1	75	10	1	184	16	9	757.26	49	16
14	39	9	6	2	1	75	10	1	185	16	1	0	-1	16
14	39	9	6	2	1	75	10	1	186	6	8	0	-1	16
14	39	9	6	2	1	75	10	1	187	6	7	0	-1	16
14	39	9	6	2	1	75	10	1	188	6	3	144.39	49	3
14	39	9	6	2	1	75	10	1	189	6	1	191.03	49	4
14	39	9	6	2	1	75	10	1	189	6	1	760.01	49	16
14	39	9	6	2	1	75	10	1	190	6	6	10.04	49	1
14	39	9	6	2	1	75	10	1	191	16	3	109.57	49	3
14	39	9	6	2	1	75	10	1	192	6	4	612.56	49	13
14	39	9	6	2	1	75	10	1	193	6	1	0	-1	16
14	39	9	6	2	1	75	10	1	194	6	2	132.33	49	3
14	39	9	6	2	1	75	10	1	195	16	6	14.17	49	1
14	39	9	6	2	1	75	10	1	196	6	5	792.23	49	16
14	39	9	6	2	1	75	10	1	197	6	9	7.82	49	1
14	39	9	6	2	1	75	10	1	197	6	9	757.29	49	16
14	39	9	6	2	1	75	10	1	198	16	8	8.56	49	1
14	39	9	6	2	1	75	10	1	199	16	10	0	-1	16
14	39	9	6	2	1	75	10	1	200	6	10	769.01	49	16
14	39	9	6	2	1	75	10	1	201	6	7	9.27	49	1
14	39	9	6	2	1	75	10	1	202	6	8	125.26	49	3
14	39	9	6	2	1	75	10	1	203	16	2	128.48	49	3
14	39	9	6	2	1	75	10	1	204	6	3	609.95	49	13
14	39	9	6	2	1	75	10	1	205	16	7	0	-1	16
14	39	9	6	2	1	75	10	1	206	6	7	640.8	49	13
14	39	9	6	2	1	75	10	1	207	6	1	9.1	49	1
14	39	9	6	2	1	75	10	1	208	6	5	111.29	49	3
14	39	9	6	2	1	75	10	1	209	16	1	11.79	49	1
14	39	9	6	2	1	75	10	1	209	16	1	259.77	49	6
14	39	9	6	2	1	75	10	1	210	6	10	0	-1	16
14	39	9	6	2	1	75	10	1	211	6	4	18.21	49	1
14	39	9	6	2	1	75	10	1	211	6	4	759.49	49	16
14	39	9	6	2	1	75	10	1	212	16	4	7.91	49	1
14	39	9	6	2	1	75	10	1	213	6	2	0	-1	16
14	39	9	6	2	1	75	10	1	214	6	9	107.66	49	3
14	39	9	6	2	1	75	10	1	215	16	5	9.61	49	1
14	39	9	6	2	1	75	10	1	216	6	3	662.84	49	14
14	39	9	6	2	1	75	10	1	217	6	6	10.41	49	1
14	39	9	6	2	1	75	10	1	217	6	6	662.53	49	14
14	39	9	6	2	1	75	10	1	218	6	8	11.14	49	1
14	39	9	6	2	1	75	10	1	219	6	6	75.51	49	2
14	39	9	6	2	1	75	10	1	220	6	4	73.32	49	2
14	39	9	6	2	1	75	10	1	221	16	9	259.07	49	6
14	39	9	6	2	1	75	10	1	221	16	9	508.52	49	11
14	39	9	6	2	1	75	10	1	222	6	9	557.16	49	12
14	39	9	6	2	1	75	10	1	222	6	9	757.58	49	16
14	39	9	6	2	1	75	10	1	223	6	10	0	-1	16
14	39	9	6	2	1	75	10	1	224	6	1	96.24	49	2
14	39	9	6	2	1	75	10	1	225	16	3	219.54	49	5
14	39	9	6	2	1	75	10	1	226	6	2	0	-1	16
14	39	9	6	2	1	75	10	1	227	6	7	108.12	49	3
14	39	9	6	2	1	75	10	1	228	6	5	0	-1	16
14	39	9	6	2	1	75	10	1	229	6	8	92.19	49	2
14	39	9	6	2	1	75	10	1	230	6	3	0	-1	16
14	39	9	6	2	1	75	10	1	231	6	6	276.29	49	6
14	39	9	6	2	1	75	10	1	231	6	6	510.22	49	11
14	39	9	6	2	1	75	10	1	232	16	6	0	-1	16
14	39	9	6	2	1	75	10	1	233	16	7	0	-1	16
14	39	9	6	2	1	75	10	1	234	6	5	688.61	49	14
14	39	9	6	2	1	75	10	1	235	6	7	8.09	49	1
14	39	9	6	2	1	75	10	1	236	16	8	18.45	49	1
14	39	9	6	2	1	75	10	1	237	6	1	0	-1	16
14	39	9	6	2	1	75	10	1	238	6	2	36.16	49	1
14	39	9	6	2	1	75	10	1	239	6	8	32.02	49	1
14	39	9	6	2	1	75	10	1	239	6	8	709.48	49	15
14	39	9	6	2	1	75	10	1	240	6	4	11.11	49	1
14	39	9	6	2	1	75	10	1	241	6	9	109.7	49	3
14	39	9	6	2	1	75	10	1	242	6	10	167.47	49	4
14	39	9	6	2	1	75	10	1	243	6	3	233.55	49	5
14	39	9	6	2	1	75	10	1	244	16	5	0	-1	16
14	39	9	6	2	1	75	10	1	245	6	7	0	-1	16
14	39	9	6	2	1	75	10	1	246	6	10	8.36	49	1
14	39	9	6	2	1	75	10	1	247	6	4	287.82	49	6
14	39	9	6	2	1	75	10	1	248	6	2	88.96	49	2
14	39	9	6	2	1	75	10	1	249	6	5	257.84	49	6
14	39	9	6	2	1	75	10	1	250	16	2	307.18	49	7
14	39	9	6	2	1	75	10	1	251	16	1	0	-1	16
14	39	9	6	2	1	75	10	1	252	6	1	0	-1	16
14	39	9	6	2	1	75	10	1	253	16	4	161.49	49	4
14	39	9	6	2	1	75	10	1	254	6	9	726.24	49	15
14	39	9	6	2	1	75	10	1	255	6	6	10.85	49	1
14	39	9	6	2	1	75	10	1	256	6	3	193.29	49	4
14	39	9	6	2	1	75	10	1	257	6	8	109.34	49	3
14	39	9	6	2	1	75	10	1	258	6	6	9.32	49	1
14	39	9	6	2	1	75	10	1	259	6	2	334.75	49	7
14	39	9	6	2	1	75	10	1	260	6	7	160.64	49	4
14	39	9	6	2	1	75	10	1	261	16	9	129.81	49	3
14	39	9	6	2	1	75	10	1	262	6	8	657.44	49	14
14	39	9	6	2	1	75	10	1	263	6	5	8.72	49	1
14	39	9	6	2	1	75	10	1	263	6	5	757.48	49	16
14	39	9	6	2	1	75	10	1	264	6	9	8.78	49	1
14	39	9	6	2	1	75	10	1	265	16	10	217.8	49	5
14	39	9	6	2	1	75	10	1	266	6	1	729.62	49	15
14	39	9	6	2	1	75	10	1	267	6	4	10.01	49	1
14	39	9	6	2	1	75	10	1	267	6	4	759.66	49	16
14	39	9	6	2	1	75	10	1	268	6	10	13.13	49	1
14	39	9	6	2	1	75	10	1	269	16	3	21.66	49	1
14	39	9	6	2	1	75	10	1	270	6	3	709.9	49	15
14	39	9	6	2	1	75	10	1	271	16	7	8.06	49	1
14	39	9	6	2	1	75	10	1	272	6	6	607.56	49	13
14	39	9	6	2	1	75	10	1	273	16	1	0	-1	16
14	39	9	6	2	1	75	10	1	274	6	8	0	-1	16
14	39	9	6	2	1	75	10	1	275	6	4	193.33	49	4
14	39	9	6	2	1	75	10	1	276	16	10	0	-1	16
14	39	9	6	2	1	75	10	1	277	6	10	0	-1	16
14	39	9	6	2	1	75	10	1	278	6	2	25.77	49	1
14	39	9	6	2	1	75	10	1	279	6	9	60.13	49	2
14	39	9	6	2	1	75	10	1	279	6	9	777.18	49	16
14	39	9	6	2	1	75	10	1	280	6	1	13.54	49	1
14	39	9	6	2	1	75	10	1	280	6	1	791.91	49	16
14	39	9	6	2	1	75	10	1	281	6	5	10.48	49	1
14	39	9	6	2	1	75	10	1	282	6	7	0	-1	16
14	39	9	6	2	1	75	10	1	283	6	3	188.61	49	4
14	39	9	6	2	1	75	10	1	284	6	2	0	-1	16
14	39	9	6	2	1	75	10	1	285	6	10	31.74	49	1
14	39	9	6	2	1	75	10	1	286	6	9	8.38	49	1
14	39	9	6	2	1	75	10	1	286	6	9	713.1	49	15
14	39	9	6	2	1	75	10	1	287	6	8	7.82	49	1
14	39	9	6	2	1	75	10	1	287	6	8	579.44	49	12
14	39	9	6	2	1	75	10	1	288	16	9	0	-1	16
14	39	9	6	2	1	75	10	1	289	6	5	660.07	49	14
14	39	9	6	2	1	75	10	1	290	6	1	11.95	49	1
14	39	9	6	2	1	75	10	1	291	6	7	122.36	49	3
14	39	9	6	2	1	75	10	1	292	16	2	77.3	49	2
14	39	9	6	2	1	75	10	1	293	6	3	693.43	49	14
14	39	9	6	2	1	75	10	1	294	6	6	9.82	49	1
14	39	9	6	2	1	75	10	1	294	6	6	658.39	49	14
14	39	9	6	2	1	75	10	1	295	6	4	11.09	49	1
14	39	9	6	2	1	75	10	1	296	16	5	73.98	49	2
14	39	9	6	2	1	75	10	1	297	16	4	0	-1	16
14	39	9	6	2	1	75	10	1	298	6	2	0	-1	16
14	39	9	6	2	1	75	10	1	299	6	9	20.85	49	1
14	39	9	6	2	1	75	10	1	299	6	9	257.26	49	6
14	39	9	6	2	1	75	10	1	299	6	9	709.69	49	15
14	39	9	6	2	1	75	10	1	300	6	10	9.79	49	1
14	39	9	6	2	1	75	10	1	301	16	6	68.54	49	2
14	39	9	6	2	1	75	10	1	302	6	1	0	-1	16
14	39	9	6	2	1	75	10	1	303	6	8	39.08	49	1
14	39	9	6	2	1	75	10	1	303	6	8	257.88	49	6
14	39	9	6	2	1	75	10	1	304	16	3	75.33	49	2
14	39	9	6	2	1	75	10	1	305	6	6	711.03	49	15
14	39	9	6	2	1	75	10	1	306	16	8	10.39	49	1
14	39	9	6	2	1	75	10	1	307	6	7	719.41	49	15
14	39	9	6	2	1	75	10	1	308	6	3	8.9	49	1
14	39	9	6	2	1	75	10	1	309	16	7	0	-1	16
14	39	9	6	2	1	75	10	1	310	16	1	0	-1	16
14	39	9	6	2	1	75	10	1	311	6	5	773.82	49	16
14	39	9	6	2	1	75	10	1	312	6	4	8.43	49	1
14	39	9	6	2	1	75	10	1	312	6	4	763.03	49	16
14	39	9	6	2	1	75	10	1	313	6	7	16.74	49	1
14	39	9	6	2	1	75	10	1	314	16	9	82.59	49	2
14	39	9	6	2	1	75	10	1	315	6	9	0	-1	16
14	39	9	6	2	1	75	10	1	316	16	4	17.1	49	1
14	39	9	6	2	1	75	10	1	317	6	2	0	-1	16
14	39	9	6	2	1	75	10	1	318	6	4	111.62	49	3
14	39	9	6	2	1	75	10	1	319	16	5	14.77	49	1
14	39	9	6	2	1	75	10	1	319	16	5	259.19	49	6
14	39	9	6	2	1	75	10	1	320	6	5	645.97	49	13
14	39	9	6	2	1	75	10	1	321	6	1	7.99	49	1
14	39	9	6	2	1	75	10	1	321	6	1	764.85	49	16
14	39	9	6	2	1	75	10	1	322	6	10	8.96	49	1
14	39	9	6	2	1	75	10	1	323	16	10	139.97	49	3
14	39	9	6	2	1	75	10	1	324	16	2	733.11	49	15
14	39	9	6	2	1	75	10	1	325	6	6	9.77	49	1
14	39	9	6	2	1	75	10	1	326	6	3	0	-1	16
14	39	9	6	2	1	75	10	1	327	6	8	259.87	49	6
14	39	9	6	2	1	75	10	1	328	6	5	0	-1	16
14	39	9	6	2	1	75	10	1	329	6	10	175.55	49	4
14	39	9	6	2	1	75	10	1	330	6	4	0	-1	16
14	39	9	6	2	1	75	10	1	331	6	9	118.93	49	3
14	39	9	6	2	1	75	10	1	332	6	2	119.7	49	3
14	39	9	6	2	1	75	10	1	333	6	8	275.07	49	6
14	39	9	6	2	1	75	10	1	334	6	7	0	-1	16
14	39	9	6	2	1	75	10	1	335	6	3	0	-1	16
14	39	9	6	2	1	75	10	1	336	6	6	180.9	49	4
14	39	9	6	2	1	75	10	1	337	6	1	73.7	49	2
14	39	9	6	2	1	75	10	1	338	6	7	161.05	49	4
14	39	9	6	2	1	75	10	1	339	6	9	114.53	49	3
14	39	9	6	2	1	75	10	1	340	6	4	162.08	49	4
14	39	9	6	2	1	75	10	1	341	6	10	38.8	49	1
14	39	9	6	2	1	75	10	1	341	6	10	785	49	16
14	39	9	6	2	1	75	10	1	342	6	5	9.37	49	1
14	39	9	6	2	1	75	10	1	343	16	6	228.41	49	5
14	39	9	6	2	1	75	10	1	344	16	3	0	-1	16
14	39	9	6	2	1	75	10	1	345	16	8	0	-1	16
14	39	9	6	2	1	75	10	1	346	6	2	728.11	49	15
14	39	9	6	2	1	75	10	1	347	16	2	8.48	49	1
14	39	9	6	2	1	75	10	1	348	6	1	757.9	49	16
14	39	9	6	2	1	75	10	1	349	6	3	10.47	49	1
14	39	9	6	2	1	75	10	1	350	6	6	60.14	49	2
14	39	9	6	2	1	75	10	1	351	6	8	128.27	49	3
14	39	9	6	2	1	75	10	1	352	6	2	0	-1	16
14	39	9	6	2	1	75	10	1	353	6	9	261.47	49	6
14	39	9	6	2	1	75	10	1	353	6	9	508.86	49	11
14	39	9	6	2	1	75	10	1	354	6	10	0	-1	16
14	39	9	6	2	1	75	10	1	355	6	7	257.55	49	6
14	39	9	6	2	1	75	10	1	356	16	9	158.54	49	4
14	39	9	6	2	1	75	10	1	357	6	1	621.33	49	13
14	39	9	6	2	1	75	10	1	358	6	6	0	-1	16
14	39	9	6	2	1	75	10	1	359	6	5	160.68	49	4
14	39	9	6	2	1	75	10	1	359	6	5	781.19	49	16
14	39	9	6	2	1	75	10	1	360	6	8	39.47	49	1
14	39	9	6	2	1	75	10	1	361	6	3	76.52	49	2
14	39	9	6	2	1	75	10	1	361	6	3	760.14	49	16
14	39	9	6	2	1	75	10	1	362	6	4	12.49	49	1
14	39	9	6	2	1	75	10	1	362	6	4	663.05	49	14
14	39	9	6	2	1	75	10	1	363	6	5	10.96	49	1
14	39	9	6	2	1	75	10	1	363	6	5	687.27	49	14
14	39	9	6	2	1	75	10	1	364	6	2	10.58	49	1
14	39	9	6	2	1	75	10	1	364	6	2	665.3	49	14
14	39	9	6	2	1	75	10	1	365	16	10	34.45	49	1
14	39	9	6	2	1	75	10	1	366	6	10	0	-1	16
14	39	9	6	2	1	75	10	1	367	6	9	60.75	49	2
14	39	9	6	2	1	75	10	1	368	6	4	287.93	49	6
14	39	9	6	2	1	75	10	1	369	6	3	226.83	49	5
14	39	9	6	2	1	75	10	1	370	6	8	340.78	49	7
14	39	9	6	2	1	75	10	1	370	6	8	559.02	49	12
14	39	9	6	2	1	75	10	1	371	6	7	0	-1	16
14	39	9	6	2	1	75	10	1	372	6	6	187.77	49	4
14	39	9	6	2	1	75	10	1	373	6	1	225.68	49	5
14	39	9	6	2	1	75	10	1	374	6	2	760.08	49	16
14	39	9	6	2	1	75	10	1	375	6	10	24.07	49	1
14	39	9	6	2	1	75	10	1	376	6	9	124.15	49	3
14	39	9	6	2	1	75	10	1	377	6	7	488.68	49	10
14	39	9	6	2	1	75	10	1	378	16	7	239.32	49	5
14	39	9	6	2	1	75	10	1	378	16	7	460.69	49	10
14	39	9	6	2	1	75	10	1	379	16	3	0	-1	16
14	39	9	6	2	1	75	10	1	380	16	5	0	-1	16
14	39	9	6	2	1	75	10	1	381	6	5	657.31	49	14
14	39	9	6	2	1	75	10	1	382	16	6	8.05	49	1
14	39	9	6	2	1	75	10	1	383	6	8	779.02	49	16
14	39	9	6	2	1	75	10	1	384	6	1	8.11	49	1
14	39	9	6	2	1	75	10	1	385	6	6	167.91	49	4
14	39	9	6	2	1	75	10	1	385	6	6	786.46	49	16
14	39	9	6	2	1	75	10	1	386	6	3	10.64	49	1
14	39	9	6	2	1	75	10	1	386	6	3	258.66	49	6
14	39	9	6	2	1	75	10	1	386	6	3	673.05	49	14
14	39	9	6	2	1	75	10	1	387	16	8	10.45	49	1
14	39	9	6	2	1	75	10	1	387	16	8	575.2	49	12
14	39	9	6	2	1	75	10	1	388	6	4	0	-1	16
14	39	9	6	2	1	75	10	1	389	6	7	109.81	49	3
14	39	9	6	2	1	75	10	1	390	6	1	311.11	49	7
14	39	9	6	2	1	75	10	1	391	6	2	208.04	49	5
14	39	9	6	2	1	75	10	1	392	6	5	673.57	49	14
14	39	9	6	2	1	75	10	1	393	16	1	7.89	49	1
14	39	9	6	2	1	75	10	1	394	6	10	0	-1	16
14	39	9	6	2	1	75	10	1	395	16	4	30.6	49	1
14	39	9	6	2	1	75	10	1	396	6	4	221.95	49	5
14	39	9	6	2	1	75	10	1	396	6	4	460.58	49	10
14	39	9	6	2	1	75	10	1	397	6	9	0	-1	16
14	39	9	6	2	1	75	10	1	398	6	6	210.11	49	5
14	39	9	6	2	1	75	10	1	399	6	3	219.93	49	5
14	39	9	6	2	1	75	10	1	400	6	8	0	-1	16
14	39	9	6	2	1	75	10	1	401	16	5	216.7	49	5
14	39	9	6	2	1	75	10	1	402	6	6	0	-1	16
14	39	9	6	2	1	75	10	1	403	16	9	0	-1	16
14	39	9	6	2	1	75	10	1	404	6	10	0	-1	16
14	39	9	6	2	1	75	10	1	405	6	9	275.46	49	6
14	39	9	6	2	1	75	10	1	406	16	2	174.12	49	4
14	39	9	6	2	1	75	10	1	407	16	10	0	-1	16
14	39	9	6	2	1	75	10	1	408	6	5	614.28	49	13
14	39	9	6	2	1	75	10	1	409	16	4	0	-1	16
14	39	9	6	2	1	75	10	1	410	16	6	0	-1	16
14	39	9	6	2	1	75	10	1	411	6	7	741.3	49	15
14	39	9	6	2	1	75	10	1	412	16	7	10.05	49	1
14	39	9	6	2	1	75	10	1	413	6	4	667.13	49	14
14	39	9	6	2	1	75	10	1	414	16	8	10.61	49	1
14	39	9	6	2	1	75	10	1	414	16	8	617.14	49	13
14	39	9	6	2	1	75	10	1	415	6	2	14.74	49	1
14	39	9	6	2	1	75	10	1	416	6	1	0	-1	16
14	39	9	6	2	1	75	10	1	417	6	8	0	-1	16
14	39	9	6	2	1	75	10	1	418	6	3	117.59	49	3
14	39	9	6	2	1	75	10	1	419	6	2	120.95	49	3
14	39	9	6	2	1	75	10	1	420	6	10	0	-1	16
14	39	9	6	2	1	75	10	1	421	16	3	225.5	49	5
14	39	9	6	2	1	75	10	1	422	6	9	761.32	49	16
14	39	9	6	2	1	75	10	1	423	16	1	9.22	49	1
14	39	9	6	2	1	75	10	1	424	6	7	0	-1	16
14	39	9	6	2	1	75	10	1	425	6	6	267.34	49	6
14	39	9	6	2	1	75	10	1	425	6	6	509.93	49	11
14	39	9	6	2	1	75	10	1	426	16	6	0	-1	16
14	39	9	6	2	1	75	10	1	427	6	5	690.51	49	14
14	39	9	6	2	1	75	10	1	428	16	7	10.2	49	1
14	39	9	6	2	1	75	10	1	429	6	8	768.85	49	16
14	39	9	6	2	1	75	10	1	430	6	1	7.72	49	1
14	39	9	6	2	1	75	10	1	431	16	1	193.51	49	4
14	39	9	6	2	1	75	10	1	432	6	3	774.75	49	16
14	39	9	6	2	1	75	10	1	433	6	4	11.53	49	1
14	39	9	6	2	1	75	10	1	434	6	6	207.46	49	5
14	39	9	6	2	1	75	10	1	435	6	1	370.45	49	8
14	39	9	6	2	1	75	10	1	436	6	4	681.95	49	14
14	39	9	6	2	1	75	10	1	437	6	10	12.63	49	1
14	39	9	6	2	1	75	10	1	438	6	5	33.56	49	1
14	39	9	6	2	1	75	10	1	439	16	10	431.64	49	9
14	39	9	6	2	1	75	10	1	440	6	7	0	-1	16
14	39	9	6	2	1	75	10	1	441	6	2	0	-1	16
14	39	9	6	2	1	75	10	1	442	6	9	210.81	49	5
14	39	9	6	2	1	75	10	1	443	6	8	0	-1	16
14	39	9	6	2	1	75	10	1	444	6	3	188.35	49	4
14	39	9	6	2	1	75	10	1	445	6	5	109.59	49	3
14	39	9	6	2	1	75	10	1	445	6	5	739.39	49	15
14	39	9	6	2	1	75	10	1	446	6	4	8.06	49	1
14	39	9	6	2	1	75	10	1	446	6	4	668.56	49	14
14	39	9	6	2	1	75	10	1	447	6	9	8.18	49	1
14	39	9	6	2	1	75	10	1	448	6	2	88.47	49	2
14	39	9	6	2	1	75	10	1	449	6	10	89.65	49	2
14	39	9	6	2	1	75	10	1	450	6	8	78.72	49	2
