SubjectNum	Age	Gender	PressedTask	Block Type	Block Repeat Num	Response Rate	Onset	Block	Trial	ImgType	ImgNum	RT	PressedC	FrameC
14	39	9	6	2	1	75	10	1	1	6	5	0	-1	16
14	39	9	6	2	1	75	10	1	2	6	10	229.21	49	5
14	39	9	6	2	1	75	10	1	2	6	10	462.41	49	10
14	39	9	6	2	1	75	10	1	3	6	4	157.84	49	4
14	39	9	6	2	1	75	10	1	4	6	9	65.84	49	2
14	39	9	6	2	1	75	10	1	5	16	7	60.03	49	2
14	39	9	6	2	1	75	10	1	5	16	7	311.06	49	7
14	39	9	6	2	1	75	10	1	6	6	2	0	-1	16
14	39	9	6	2	1	75	10	1	7	6	3	115.34	49	3
14	39	9	6	2	1	75	10	1	7	6	3	361.67	49	8
14	39	9	6	2	1	75	10	1	8	16	9	120.06	49	3
14	39	9	6	2	1	75	10	1	9	6	8	0	-1	16
14	39	9	6	2	1	75	10	1	10	16	2	208.44	49	5
14	39	9	6	2	1	75	10	1	10	16	2	420.32	49	9
14	39	9	6	2	1	75	10	1	11	6	7	0	-1	16
14	39	9	6	2	1	75	10	1	12	6	6	125.15	49	3
14	39	9	6	2	1	75	10	1	12	6	6	359.63	49	8
14	39	9	6	2	1	75	10	1	13	6	1	264.28	49	6
14	39	9	6	2	1	75	10	1	14	16	5	0	-1	16
14	39	9	6	2	1	75	10	1	15	6	5	760.82	49	16
14	39	9	6	2	1	75	10	1	16	6	2	8.82	49	1
14	39	9	6	2	1	75	10	1	16	6	2	210.26	49	5
14	39	9	6	2	1	75	10	1	17	6	4	259.89	49	6
14	39	9	6	2	1	75	10	1	17	6	4	460.21	49	10
14	39	9	6	2	1	75	10	1	18	6	9	84.47	49	2
14	39	9	6	2	1	75	10	1	19	6	10	0	-1	16
14	39	9	6	2	1	75	10	1	20	16	1	186.94	49	4
14	39	9	6	2	1	75	10	1	21	6	3	0	-1	16
14	39	9	6	2	1	75	10	1	22	16	10	0	-1	16
14	39	9	6	2	1	75	10	1	23	6	7	42.75	49	1
14	39	9	6	2	1	75	10	1	23	6	7	259.03	49	6
14	39	9	6	2	1	75	10	1	24	16	4	0	-1	16
14	39	9	6	2	1	75	10	1	25	6	8	0	-1	16
14	39	9	6	2	1	75	10	1	26	16	3	141.88	49	3
14	39	9	6	2	1	75	10	1	27	6	6	616.83	49	13
14	39	9	6	2	1	75	10	1	28	6	1	9.08	49	1
14	39	9	6	2	1	75	10	1	29	6	6	39.67	49	1
14	39	9	6	2	1	75	10	1	30	6	1	74.88	49	2
14	39	9	6	2	1	75	10	1	30	6	1	309.68	49	7
14	39	9	6	2	1	75	10	1	31	16	6	279.75	49	6
14	39	9	6	2	1	75	10	1	31	16	6	510.25	49	11
14	39	9	6	2	1	75	10	1	32	6	9	710.56	49	15
14	39	9	6	2	1	75	10	1	33	6	8	12.91	49	1
14	39	9	6	2	1	75	10	1	34	6	10	113.51	49	3
14	39	9	6	2	1	75	10	1	34	6	10	357.87	49	8
14	39	9	6	2	1	75	10	1	35	16	8	189.98	49	4
14	39	9	6	2	1	75	10	1	35	16	8	395.84	49	8
14	39	9	6	2	1	75	10	1	36	6	7	0	-1	16
14	39	9	6	2	1	75	10	1	37	6	4	357.25	49	8
14	39	9	6	2	1	75	10	1	37	6	4	557.44	49	12
14	39	9	6	2	1	75	10	1	38	6	2	0	-1	16
14	39	9	6	2	1	75	10	1	39	6	5	357.28	49	8
14	39	9	6	2	1	75	10	1	40	16	7	0	-1	16
14	39	9	6	2	1	75	10	1	41	16	4	0	-1	16
14	39	9	6	2	1	75	10	1	42	6	3	0	-1	16
14	39	9	6	2	1	75	10	1	43	6	7	11.57	49	1
14	39	9	6	2	1	75	10	1	44	6	5	383.06	49	8
14	39	9	6	2	1	75	10	1	45	6	2	725.58	49	15
14	39	9	6	2	1	75	10	1	46	6	1	10.06	49	1
14	39	9	6	2	1	75	10	1	46	6	1	782.03	49	16
14	39	9	6	2	1	75	10	1	47	6	9	8.65	49	1
14	39	9	6	2	1	75	10	1	48	6	4	133.67	49	3
14	39	9	6	2	1	75	10	1	48	6	4	741.72	49	15
14	39	9	6	2	1	75	10	1	49	16	5	10.73	49	1
14	39	9	6	2	1	75	10	1	50	16	1	0	-1	16
14	39	9	6	2	1	75	10	1	51	6	10	0	-1	16
14	39	9	6	2	1	75	10	1	52	6	6	789.01	49	16
14	39	9	6	2	1	75	10	1	53	6	3	7.67	49	1
14	39	9	6	2	1	75	10	1	54	6	8	8.28	49	1
14	39	9	6	2	1	75	10	1	55	16	2	259.74	49	6
14	39	9	6	2	1	75	10	1	56	6	2	760.12	49	16
14	39	9	6	2	1	75	10	1	57	6	10	13.21	49	1
14	39	9	6	2	1	75	10	1	58	6	9	0	-1	16
14	39	9	6	2	1	75	10	1	59	16	10	0	-1	16
14	39	9	6	2	1	75	10	1	60	6	1	686.96	49	14
14	39	9	6	2	1	75	10	1	61	6	8	8.32	49	1
14	39	9	6	2	1	75	10	1	62	6	3	8.44	49	1
14	39	9	6	2	1	75	10	1	63	6	6	40	49	1
14	39	9	6	2	1	75	10	1	63	6	6	257.11	49	6
14	39	9	6	2	1	75	10	1	64	6	5	110.37	49	3
14	39	9	6	2	1	75	10	1	64	6	5	357.1	49	8
14	39	9	6	2	1	75	10	1	65	6	7	12.2	49	1
14	39	9	6	2	1	75	10	1	66	6	4	161.63	49	4
14	39	9	6	2	1	75	10	1	66	6	4	410.41	49	9
14	39	9	6	2	1	75	10	1	67	6	7	0	-1	16
14	39	9	6	2	1	75	10	1	68	6	4	0	-1	16
14	39	9	6	2	1	75	10	1	69	6	10	10.83	49	1
14	39	9	6	2	1	75	10	1	70	6	2	358.98	49	8
14	39	9	6	2	1	75	10	1	71	6	1	0	-1	16
14	39	9	6	2	1	75	10	1	72	6	9	173.88	49	4
14	39	9	6	2	1	75	10	1	73	6	5	286.5	49	6
14	39	9	6	2	1	75	10	1	74	6	6	275.42	49	6
14	39	9	6	2	1	75	10	1	75	6	3	0	-1	16
14	39	9	6	2	1	75	10	1	76	6	8	8.53	49	1
14	39	9	6	2	1	75	10	1	77	6	5	168.78	49	4
14	39	9	6	2	1	75	10	1	78	16	9	92.8	49	2
14	39	9	6	2	1	75	10	1	79	16	6	0	-1	16
14	39	9	6	2	1	75	10	1	80	16	3	0	-1	16
14	39	9	6	2	1	75	10	1	81	16	8	0	-1	16
14	39	9	6	2	1	75	10	1	82	6	4	724.54	49	15
14	39	9	6	2	1	75	10	1	83	16	7	8.67	49	1
14	39	9	6	2	1	75	10	1	84	6	10	0	-1	16
14	39	9	6	2	1	75	10	1	85	6	2	30.74	49	1
14	39	9	6	2	1	75	10	1	86	6	9	25.45	49	1
14	39	9	6	2	1	75	10	1	87	6	7	43.06	49	1
14	39	9	6	2	1	75	10	1	87	6	7	257.09	49	6
14	39	9	6	2	1	75	10	1	88	6	8	0	-1	16
14	39	9	6	2	1	75	10	1	89	6	6	30.29	49	1
14	39	9	6	2	1	75	10	1	89	6	6	260.99	49	6
14	39	9	6	2	1	75	10	1	90	6	3	95.08	49	2
14	39	9	6	2	1	75	10	1	90	6	3	334.4	49	7
14	39	9	6	2	1	75	10	1	91	6	1	160	49	4
14	39	9	6	2	1	75	10	1	91	6	1	409.9	49	9
14	39	9	6	2	1	75	10	1	92	6	7	273.64	49	6
14	39	9	6	2	1	75	10	1	93	16	9	0	-1	16
14	39	9	6	2	1	75	10	1	94	6	5	0	-1	16
14	39	9	6	2	1	75	10	1	95	6	2	62.99	49	2
14	39	9	6	2	1	75	10	1	96	6	1	0	-1	16
14	39	9	6	2	1	75	10	1	97	6	9	66.11	49	2
14	39	9	6	2	1	75	10	1	98	16	2	157.31	49	4
14	39	9	6	2	1	75	10	1	99	6	4	708.34	49	15
14	39	9	6	2	1	75	10	1	100	16	4	8.5	49	1
14	39	9	6	2	1	75	10	1	101	6	10	0	-1	16
14	39	9	6	2	1	75	10	1	102	6	3	145.04	49	3
14	39	9	6	2	1	75	10	1	102	6	3	361.3	49	8
14	39	9	6	2	1	75	10	1	103	6	6	761.18	49	16
14	39	9	6	2	1	75	10	1	104	6	8	11.08	49	1
14	39	9	6	2	1	75	10	1	105	6	5	732.98	49	15
14	39	9	6	2	1	75	10	1	106	6	9	16.41	49	1
14	39	9	6	2	1	75	10	1	107	16	10	27.78	49	1
14	39	9	6	2	1	75	10	1	108	6	4	679.05	49	14
14	39	9	6	2	1	75	10	1	109	16	1	9.33	49	1
14	39	9	6	2	1	75	10	1	110	6	2	773.96	49	16
14	39	9	6	2	1	75	10	1	111	6	10	8.22	49	1
14	39	9	6	2	1	75	10	1	112	6	6	62.47	49	2
14	39	9	6	2	1	75	10	1	113	16	5	0	-1	16
14	39	9	6	2	1	75	10	1	114	6	3	794.26	49	16
14	39	9	6	2	1	75	10	1	115	6	7	14.77	49	1
14	39	9	6	2	1	75	10	1	116	16	3	0	-1	16
14	39	9	6	2	1	75	10	1	117	16	6	0	-1	16
14	39	9	6	2	1	75	10	1	118	16	8	0	-1	16
14	39	9	6	2	1	75	10	1	119	6	8	572.44	49	12
14	39	9	6	2	1	75	10	1	120	6	1	9.93	49	1
14	39	9	6	2	1	75	10	1	121	16	5	0	-1	16
14	39	9	6	2	1	75	10	1	122	6	5	679.55	49	14
14	39	9	6	2	1	75	10	1	123	6	2	8.92	49	1
14	39	9	6	2	1	75	10	1	124	16	4	222.59	49	5
14	39	9	6	2	1	75	10	1	125	16	9	0	-1	16
14	39	9	6	2	1	75	10	1	126	16	10	0	-1	16
14	39	9	6	2	1	75	10	1	127	6	10	761.42	49	16
14	39	9	6	2	1	75	10	1	128	16	2	10.96	49	1
14	39	9	6	2	1	75	10	1	129	16	6	0	-1	16
14	39	9	6	2	1	75	10	1	130	16	8	0	-1	16
14	39	9	6	2	1	75	10	1	131	16	7	0	-1	16
14	39	9	6	2	1	75	10	1	132	6	9	725.2	49	15
14	39	9	6	2	1	75	10	1	133	6	4	12.46	49	1
14	39	9	6	2	1	75	10	1	134	6	8	377.2	49	8
14	39	9	6	2	1	75	10	1	134	6	8	609.8	49	13
14	39	9	6	2	1	75	10	1	135	6	7	0	-1	16
14	39	9	6	2	1	75	10	1	136	6	3	83.33	49	2
14	39	9	6	2	1	75	10	1	136	6	3	310.11	49	7
14	39	9	6	2	1	75	10	1	137	6	6	234.88	49	5
14	39	9	6	2	1	75	10	1	137	6	6	457.95	49	10
14	39	9	6	2	1	75	10	1	138	6	1	0	-1	16
14	39	9	6	2	1	75	10	1	139	16	3	33.07	49	1
14	39	9	6	2	1	75	10	1	139	16	3	257.72	49	6
14	39	9	6	2	1	75	10	1	140	16	1	0	-1	16
14	39	9	6	2	1	75	10	1	141	16	6	0	-1	16
14	39	9	6	2	1	75	10	1	142	6	7	736.89	49	15
14	39	9	6	2	1	75	10	1	143	6	2	13.14	49	1
14	39	9	6	2	1	75	10	1	144	16	10	237.37	49	5
14	39	9	6	2	1	75	10	1	145	6	10	0	-1	16
14	39	9	6	2	1	75	10	1	146	6	4	0	-1	16
14	39	9	6	2	1	75	10	1	147	6	5	0	-1	16
14	39	9	6	2	1	75	10	1	148	6	1	0	-1	16
14	39	9	6	2	1	75	10	1	149	6	9	38.79	49	1
14	39	9	6	2	1	75	10	1	149	6	9	758.88	49	16
14	39	9	6	2	1	75	10	1	150	6	6	9	49	1
14	39	9	6	2	1	75	10	1	151	6	3	66.51	49	2
14	39	9	6	2	1	75	10	1	152	6	8	10.81	49	1
14	39	9	6	2	1	75	10	1	152	6	8	210.96	49	5
14	39	9	6	2	1	75	10	1	153	6	7	0	-1	16
14	39	9	6	2	1	75	10	1	154	6	9	63.28	49	2
14	39	9	6	2	1	75	10	1	154	6	9	312.46	49	7
14	39	9	6	2	1	75	10	1	155	6	4	47.57	49	1
14	39	9	6	2	1	75	10	1	156	6	2	0	-1	16
14	39	9	6	2	1	75	10	1	157	6	10	176.84	49	4
14	39	9	6	2	1	75	10	1	158	6	5	11.95	49	1
14	39	9	6	2	1	75	10	1	159	6	1	184.19	49	4
14	39	9	6	2	1	75	10	1	160	6	3	795.37	49	16
14	39	9	6	2	1	75	10	1	161	16	4	13.07	49	1
14	39	9	6	2	1	75	10	1	162	6	6	688.35	49	14
14	39	9	6	2	1	75	10	1	163	16	8	13.99	49	1
14	39	9	6	2	1	75	10	1	164	6	8	734.29	49	15
14	39	9	6	2	1	75	10	1	165	6	6	11.33	49	1
14	39	9	6	2	1	75	10	1	166	16	7	465.9	49	10
14	39	9	6	2	1	75	10	1	166	16	7	709.43	49	15
14	39	9	6	2	1	75	10	1	167	6	4	11.06	49	1
14	39	9	6	2	1	75	10	1	168	6	5	0	-1	16
14	39	9	6	2	1	75	10	1	169	6	10	0	-1	16
14	39	9	6	2	1	75	10	1	170	6	9	136.77	49	3
14	39	9	6	2	1	75	10	1	171	6	7	123.48	49	3
14	39	9	6	2	1	75	10	1	172	16	5	92.03	49	2
14	39	9	6	2	1	75	10	1	173	6	2	715.3	49	15
14	39	9	6	2	1	75	10	1	174	16	2	10.69	49	1
14	39	9	6	2	1	75	10	1	175	6	1	766.89	49	16
14	39	9	6	2	1	75	10	1	176	6	8	11	49	1
14	39	9	6	2	1	75	10	1	176	6	8	212.24	49	5
14	39	9	6	2	1	75	10	1	177	6	3	29.11	49	1
14	39	9	6	2	1	75	10	1	178	6	5	18.1	49	1
14	39	9	6	2	1	75	10	1	178	6	5	264.28	49	6
14	39	9	6	2	1	75	10	1	178	6	5	714.14	49	15
14	39	9	6	2	1	75	10	1	179	6	4	9.88	49	1
14	39	9	6	2	1	75	10	1	179	6	4	259.06	49	6
14	39	9	6	2	1	75	10	1	179	6	4	710.59	49	15
14	39	9	6	2	1	75	10	1	180	6	2	9.48	49	1
14	39	9	6	2	1	75	10	1	181	6	10	325.42	49	7
14	39	9	6	2	1	75	10	1	181	6	10	559.23	49	12
14	39	9	6	2	1	75	10	1	182	6	9	0	-1	16
14	39	9	6	2	1	75	10	1	183	6	6	772.45	49	16
14	39	9	6	2	1	75	10	1	184	16	9	8.11	49	1
14	39	9	6	2	1	75	10	1	185	16	1	0	-1	16
14	39	9	6	2	1	75	10	1	186	6	8	221.64	49	5
14	39	9	6	2	1	75	10	1	187	6	7	162.64	49	4
14	39	9	6	2	1	75	10	1	188	6	3	328.33	49	7
14	39	9	6	2	1	75	10	1	189	6	1	0	-1	16
14	39	9	6	2	1	75	10	1	190	6	6	211.95	49	5
14	39	9	6	2	1	75	10	1	191	16	3	370.47	49	8
14	39	9	6	2	1	75	10	1	192	6	4	725.92	49	15
14	39	9	6	2	1	75	10	1	193	6	1	8.46	49	1
14	39	9	6	2	1	75	10	1	194	6	2	219.58	49	5
14	39	9	6	2	1	75	10	1	195	16	6	0	-1	16
14	39	9	6	2	1	75	10	1	196	6	5	0	-1	16
14	39	9	6	2	1	75	10	1	197	6	9	60.2	49	2
14	39	9	6	2	1	75	10	1	198	16	8	0	-1	16
14	39	9	6	2	1	75	10	1	199	16	10	0	-1	16
14	39	9	6	2	1	75	10	1	200	6	10	711.39	49	15
14	39	9	6	2	1	75	10	1	201	6	7	11.16	49	1
14	39	9	6	2	1	75	10	1	202	6	8	159.7	49	4
14	39	9	6	2	1	75	10	1	203	16	2	120.17	49	3
14	39	9	6	2	1	75	10	1	204	6	3	0	-1	16
14	39	9	6	2	1	75	10	1	205	16	7	43.93	49	1
14	39	9	6	2	1	75	10	1	205	16	7	257.21	49	6
14	39	9	6	2	1	75	10	1	206	6	7	792.1	49	16
14	39	9	6	2	1	75	10	1	207	6	1	8.98	49	1
14	39	9	6	2	1	75	10	1	207	6	1	211.48	49	5
14	39	9	6	2	1	75	10	1	208	6	5	234.3	49	5
14	39	9	6	2	1	75	10	1	209	16	1	79.97	49	2
14	39	9	6	2	1	75	10	1	209	16	1	310.1	49	7
14	39	9	6	2	1	75	10	1	210	6	10	0	-1	16
14	39	9	6	2	1	75	10	1	211	6	4	133.48	49	3
14	39	9	6	2	1	75	10	1	211	6	4	358.39	49	8
14	39	9	6	2	1	75	10	1	212	16	4	0	-1	16
14	39	9	6	2	1	75	10	1	213	6	2	0	-1	16
14	39	9	6	2	1	75	10	1	214	6	9	68.62	49	2
14	39	9	6	2	1	75	10	1	215	16	5	266.58	49	6
14	39	9	6	2	1	75	10	1	216	6	3	0	-1	16
14	39	9	6	2	1	75	10	1	217	6	6	297.92	49	6
14	39	9	6	2	1	75	10	1	217	6	6	510.13	49	11
14	39	9	6	2	1	75	10	1	218	6	8	0	-1	16
14	39	9	6	2	1	75	10	1	219	6	6	0	-1	16
14	39	9	6	2	1	75	10	1	220	6	4	176.06	49	4
14	39	9	6	2	1	75	10	1	220	6	4	723.56	49	15
14	39	9	6	2	1	75	10	1	221	16	9	8.36	49	1
14	39	9	6	2	1	75	10	1	222	6	9	645.62	49	13
14	39	9	6	2	1	75	10	1	223	6	10	8.31	49	1
14	39	9	6	2	1	75	10	1	224	6	1	179.32	49	4
14	39	9	6	2	1	75	10	1	225	16	3	0	-1	16
14	39	9	6	2	1	75	10	1	226	6	2	0	-1	16
14	39	9	6	2	1	75	10	1	227	6	7	79.65	49	2
14	39	9	6	2	1	75	10	1	227	6	7	310.8	49	7
14	39	9	6	2	1	75	10	1	228	6	5	0	-1	16
14	39	9	6	2	1	75	10	1	229	6	8	60.6	49	2
14	39	9	6	2	1	75	10	1	229	6	8	262.78	49	6
14	39	9	6	2	1	75	10	1	230	6	3	164	49	4
14	39	9	6	2	1	75	10	1	231	6	6	0	-1	16
14	39	9	6	2	1	75	10	1	232	16	6	41.99	49	1
14	39	9	6	2	1	75	10	1	232	16	6	265.45	49	6
14	39	9	6	2	1	75	10	1	233	16	7	0	-1	16
14	39	9	6	2	1	75	10	1	234	6	5	709.07	49	15
14	39	9	6	2	1	75	10	1	235	6	7	7.96	49	1
14	39	9	6	2	1	75	10	1	236	16	8	112.21	49	3
14	39	9	6	2	1	75	10	1	237	6	1	0	-1	16
14	39	9	6	2	1	75	10	1	238	6	2	10.96	49	1
14	39	9	6	2	1	75	10	1	239	6	8	145.1	49	3
14	39	9	6	2	1	75	10	1	239	6	8	361.61	49	8
14	39	9	6	2	1	75	10	1	240	6	4	740.51	49	15
14	39	9	6	2	1	75	10	1	241	6	9	9.12	49	1
14	39	9	6	2	1	75	10	1	242	6	10	289.6	49	6
14	39	9	6	2	1	75	10	1	243	6	3	0	-1	16
14	39	9	6	2	1	75	10	1	244	16	5	0	-1	16
14	39	9	6	2	1	75	10	1	245	6	7	0	-1	16
14	39	9	6	2	1	75	10	1	246	6	10	269.56	49	6
14	39	9	6	2	1	75	10	1	246	6	10	473.46	49	10
14	39	9	6	2	1	75	10	1	247	6	4	678.33	49	14
14	39	9	6	2	1	75	10	1	248	6	2	8.11	49	1
14	39	9	6	2	1	75	10	1	249	6	5	208.07	49	5
14	39	9	6	2	1	75	10	1	249	6	5	409.46	49	9
14	39	9	6	2	1	75	10	1	250	16	2	0	-1	16
14	39	9	6	2	1	75	10	1	251	16	1	0	-1	16
14	39	9	6	2	1	75	10	1	252	6	1	0	-1	16
14	39	9	6	2	1	75	10	1	253	16	4	729.93	49	15
14	39	9	6	2	1	75	10	1	254	6	9	7.91	49	1
14	39	9	6	2	1	75	10	1	254	6	9	257.31	49	6
14	39	9	6	2	1	75	10	1	255	6	6	0	-1	16
14	39	9	6	2	1	75	10	1	256	6	3	68.32	49	2
14	39	9	6	2	1	75	10	1	256	6	3	714.08	49	15
14	39	9	6	2	1	75	10	1	257	6	8	7.42	49	1
14	39	9	6	2	1	75	10	1	258	6	6	191.55	49	4
14	39	9	6	2	1	75	10	1	259	6	2	67.69	49	2
14	39	9	6	2	1	75	10	1	260	6	7	44.99	49	1
14	39	9	6	2	1	75	10	1	260	6	7	765.7	49	16
14	39	9	6	2	1	75	10	1	261	16	9	11.52	49	1
14	39	9	6	2	1	75	10	1	262	6	8	627.56	49	13
14	39	9	6	2	1	75	10	1	263	6	5	10.81	49	1
14	39	9	6	2	1	75	10	1	264	6	9	0	-1	16
14	39	9	6	2	1	75	10	1	265	16	10	110.77	49	3
14	39	9	6	2	1	75	10	1	266	6	1	0	-1	16
14	39	9	6	2	1	75	10	1	267	6	4	13.18	49	1
14	39	9	6	2	1	75	10	1	268	6	10	33.41	49	1
14	39	9	6	2	1	75	10	1	269	16	3	15.92	49	1
14	39	9	6	2	1	75	10	1	270	6	3	752.06	49	15
14	39	9	6	2	1	75	10	1	271	16	7	13.18	49	1
14	39	9	6	2	1	75	10	1	272	6	6	0	-1	16
14	39	9	6	2	1	75	10	1	273	16	1	8.54	49	1
14	39	9	6	2	1	75	10	1	273	16	1	209.14	49	5
14	39	9	6	2	1	75	10	1	274	6	8	0	-1	16
14	39	9	6	2	1	75	10	1	275	6	4	258.87	49	6
14	39	9	6	2	1	75	10	1	275	6	4	460.32	49	10
14	39	9	6	2	1	75	10	1	276	16	10	0	-1	16
14	39	9	6	2	1	75	10	1	277	6	10	0	-1	16
14	39	9	6	2	1	75	10	1	278	6	2	11.43	49	1
14	39	9	6	2	1	75	10	1	279	6	9	0	-1	16
14	39	9	6	2	1	75	10	1	280	6	1	110.57	49	3
14	39	9	6	2	1	75	10	1	281	6	5	718.86	49	15
14	39	9	6	2	1	75	10	1	282	6	7	8.27	49	1
14	39	9	6	2	1	75	10	1	283	6	3	218.39	49	5
14	39	9	6	2	1	75	10	1	283	6	3	459.38	49	10
14	39	9	6	2	1	75	10	1	284	6	2	0	-1	16
14	39	9	6	2	1	75	10	1	285	6	10	94.71	49	2
14	39	9	6	2	1	75	10	1	285	6	10	307.22	49	7
14	39	9	6	2	1	75	10	1	286	6	9	166.26	49	4
14	39	9	6	2	1	75	10	1	286	6	9	408.71	49	9
14	39	9	6	2	1	75	10	1	287	6	8	0	-1	16
14	39	9	6	2	1	75	10	1	288	16	9	210.14	49	5
14	39	9	6	2	1	75	10	1	289	6	5	0	-1	16
14	39	9	6	2	1	75	10	1	290	6	1	119.87	49	3
14	39	9	6	2	1	75	10	1	291	6	7	0	-1	16
14	39	9	6	2	1	75	10	1	292	16	2	124.04	49	3
14	39	9	6	2	1	75	10	1	293	6	3	0	-1	16
14	39	9	6	2	1	75	10	1	294	6	6	310.32	49	7
14	39	9	6	2	1	75	10	1	294	6	6	512.05	49	11
14	39	9	6	2	1	75	10	1	295	6	4	770.72	49	16
14	39	9	6	2	1	75	10	1	296	16	5	11.1	49	1
14	39	9	6	2	1	75	10	1	297	16	4	0	-1	16
14	39	9	6	2	1	75	10	1	298	6	2	0	-1	16
14	39	9	6	2	1	75	10	1	299	6	9	110.38	49	3
14	39	9	6	2	1	75	10	1	300	6	10	63.43	49	2
14	39	9	6	2	1	75	10	1	301	16	6	16.34	49	1
14	39	9	6	2	1	75	10	1	302	6	1	0	-1	16
14	39	9	6	2	1	75	10	1	303	6	8	69.8	49	2
14	39	9	6	2	1	75	10	1	304	16	3	0	-1	16
14	39	9	6	2	1	75	10	1	305	6	6	0	-1	16
14	39	9	6	2	1	75	10	1	306	16	8	108.17	49	3
14	39	9	6	2	1	75	10	1	306	16	8	309.65	49	7
14	39	9	6	2	1	75	10	1	307	6	7	780.72	49	16
14	39	9	6	2	1	75	10	1	308	6	3	11.73	49	1
14	39	9	6	2	1	75	10	1	309	16	7	123.06	49	3
14	39	9	6	2	1	75	10	1	310	16	1	0	-1	16
14	39	9	6	2	1	75	10	1	311	6	5	0	-1	16
14	39	9	6	2	1	75	10	1	312	6	4	117.03	49	3
14	39	9	6	2	1	75	10	1	313	6	7	0	-1	16
14	39	9	6	2	1	75	10	1	314	16	9	248.57	49	5
14	39	9	6	2	1	75	10	1	315	6	9	679.62	49	14
14	39	9	6	2	1	75	10	1	316	16	4	9.52	49	1
14	39	9	6	2	1	75	10	1	317	6	2	0	-1	16
14	39	9	6	2	1	75	10	1	318	6	4	134.81	49	3
14	39	9	6	2	1	75	10	1	318	6	4	360.98	49	8
14	39	9	6	2	1	75	10	1	319	16	5	0	-1	16
14	39	9	6	2	1	75	10	1	320	6	5	712.6	49	15
14	39	9	6	2	1	75	10	1	321	6	1	11.4	49	1
14	39	9	6	2	1	75	10	1	322	6	10	333.33	49	7
14	39	9	6	2	1	75	10	1	322	6	10	561.84	49	12
14	39	9	6	2	1	75	10	1	323	16	10	0	-1	16
14	39	9	6	2	1	75	10	1	324	16	2	0	-1	16
14	39	9	6	2	1	75	10	1	325	6	6	0	-1	16
14	39	9	6	2	1	75	10	1	326	6	3	87.43	49	2
14	39	9	6	2	1	75	10	1	326	6	3	308.08	49	7
14	39	9	6	2	1	75	10	1	327	6	8	0	-1	16
14	39	9	6	2	1	75	10	1	328	6	5	57.58	49	2
14	39	9	6	2	1	75	10	1	329	6	10	187.57	49	4
14	39	9	6	2	1	75	10	1	330	6	4	782.75	49	16
14	39	9	6	2	1	75	10	1	331	6	9	13.28	49	1
14	39	9	6	2	1	75	10	1	332	6	2	27.94	49	1
14	39	9	6	2	1	75	10	1	332	6	2	259.8	49	6
14	39	9	6	2	1	75	10	1	333	6	8	0	-1	16
14	39	9	6	2	1	75	10	1	334	6	7	0	-1	16
14	39	9	6	2	1	75	10	1	335	6	3	20.45	49	1
14	39	9	6	2	1	75	10	1	335	6	3	258.39	49	6
14	39	9	6	2	1	75	10	1	336	6	6	89.25	49	2
14	39	9	6	2	1	75	10	1	336	6	6	737.75	49	15
14	39	9	6	2	1	75	10	1	337	6	1	8.51	49	1
14	39	9	6	2	1	75	10	1	338	6	7	182.32	49	4
14	39	9	6	2	1	75	10	1	338	6	7	409.53	49	9
14	39	9	6	2	1	75	10	1	339	6	9	233.84	49	5
14	39	9	6	2	1	75	10	1	340	6	4	761.48	49	16
14	39	9	6	2	1	75	10	1	341	6	10	13.73	49	1
14	39	9	6	2	1	75	10	1	341	6	10	732.57	49	15
14	39	9	6	2	1	75	10	1	342	6	5	10.64	49	1
14	39	9	6	2	1	75	10	1	342	6	5	794.73	49	16
14	39	9	6	2	1	75	10	1	343	16	6	11.44	49	1
14	39	9	6	2	1	75	10	1	344	16	3	0	-1	16
14	39	9	6	2	1	75	10	1	345	16	8	0	-1	16
14	39	9	6	2	1	75	10	1	346	6	2	0	-1	16
14	39	9	6	2	1	75	10	1	347	16	2	35.07	49	1
14	39	9	6	2	1	75	10	1	347	16	2	257.6	49	6
14	39	9	6	2	1	75	10	1	348	6	1	757.77	49	16
14	39	9	6	2	1	75	10	1	349	6	3	8.67	49	1
14	39	9	6	2	1	75	10	1	350	6	6	783.75	49	16
14	39	9	6	2	1	75	10	1	351	6	8	8.17	49	1
14	39	9	6	2	1	75	10	1	352	6	2	0	-1	16
14	39	9	6	2	1	75	10	1	353	6	9	245.55	49	5
14	39	9	6	2	1	75	10	1	353	6	9	460.68	49	10
14	39	9	6	2	1	75	10	1	354	6	10	789.5	49	16
14	39	9	6	2	1	75	10	1	355	6	7	10.37	49	1
14	39	9	6	2	1	75	10	1	356	16	9	0	-1	16
14	39	9	6	2	1	75	10	1	357	6	1	0	-1	16
14	39	9	6	2	1	75	10	1	358	6	6	275.13	49	6
14	39	9	6	2	1	75	10	1	359	6	5	720.99	49	15
14	39	9	6	2	1	75	10	1	360	6	8	8.36	49	1
14	39	9	6	2	1	75	10	1	361	6	3	0	-1	16
14	39	9	6	2	1	75	10	1	362	6	4	59.12	49	2
14	39	9	6	2	1	75	10	1	362	6	4	307.37	49	7
14	39	9	6	2	1	75	10	1	363	6	5	805.5	49	16
14	39	9	6	2	1	75	10	1	364	6	2	11.8	49	1
14	39	9	6	2	1	75	10	1	364	6	2	217.77	49	5
14	39	9	6	2	1	75	10	1	364	6	2	771.06	49	16
14	39	9	6	2	1	75	10	1	365	16	10	17.84	49	1
14	39	9	6	2	1	75	10	1	366	6	10	0	-1	16
14	39	9	6	2	1	75	10	1	367	6	9	85.05	49	2
14	39	9	6	2	1	75	10	1	368	6	4	0	-1	16
14	39	9	6	2	1	75	10	1	369	6	3	108.76	49	3
14	39	9	6	2	1	75	10	1	370	6	8	88.72	49	2
14	39	9	6	2	1	75	10	1	370	6	8	307.51	49	7
14	39	9	6	2	1	75	10	1	371	6	7	0	-1	16
14	39	9	6	2	1	75	10	1	372	6	6	66.48	49	2
14	39	9	6	2	1	75	10	1	372	6	6	309.91	49	7
14	39	9	6	2	1	75	10	1	373	6	1	0	-1	16
14	39	9	6	2	1	75	10	1	374	6	2	11.43	49	1
14	39	9	6	2	1	75	10	1	374	6	2	260.08	49	6
14	39	9	6	2	1	75	10	1	375	6	10	159.82	49	4
14	39	9	6	2	1	75	10	1	376	6	9	789.05	49	16
14	39	9	6	2	1	75	10	1	377	6	7	10.19	49	1
14	39	9	6	2	1	75	10	1	378	16	7	460.78	49	10
14	39	9	6	2	1	75	10	1	379	16	3	0	-1	16
14	39	9	6	2	1	75	10	1	380	16	5	0	-1	16
14	39	9	6	2	1	75	10	1	381	6	5	658.82	49	14
14	39	9	6	2	1	75	10	1	382	16	6	10.46	49	1
14	39	9	6	2	1	75	10	1	383	6	8	0	-1	16
14	39	9	6	2	1	75	10	1	384	6	1	43.47	49	1
14	39	9	6	2	1	75	10	1	385	6	6	110.31	49	3
14	39	9	6	2	1	75	10	1	386	6	3	184.62	49	4
14	39	9	6	2	1	75	10	1	386	6	3	732.29	49	15
14	39	9	6	2	1	75	10	1	387	16	8	10.73	49	1
14	39	9	6	2	1	75	10	1	388	6	4	586.09	49	12
14	39	9	6	2	1	75	10	1	389	6	7	13.05	49	1
14	39	9	6	2	1	75	10	1	390	6	1	158.97	49	4
14	39	9	6	2	1	75	10	1	391	6	2	379.9	49	8
14	39	9	6	2	1	75	10	1	391	6	2	607.89	49	13
14	39	9	6	2	1	75	10	1	392	6	5	737.6	49	15
14	39	9	6	2	1	75	10	1	393	16	1	7.85	49	1
14	39	9	6	2	1	75	10	1	394	6	10	0	-1	16
14	39	9	6	2	1	75	10	1	395	16	4	447.31	49	9
14	39	9	6	2	1	75	10	1	395	16	4	657.45	49	14
14	39	9	6	2	1	75	10	1	396	6	4	8.7	49	1
14	39	9	6	2	1	75	10	1	397	6	9	0	-1	16
14	39	9	6	2	1	75	10	1	398	6	6	0	-1	16
14	39	9	6	2	1	75	10	1	399	6	3	0	-1	16
14	39	9	6	2	1	75	10	1	400	6	8	92.32	49	2
14	39	9	6	2	1	75	10	1	401	16	5	60.79	49	2
14	39	9	6	2	1	75	10	1	402	6	6	0	-1	16
14	39	9	6	2	1	75	10	1	403	16	9	44.86	49	1
14	39	9	6	2	1	75	10	1	404	6	10	609.42	49	13
14	39	9	6	2	1	75	10	1	405	6	9	0	-1	16
14	39	9	6	2	1	75	10	1	406	16	2	64.36	49	2
14	39	9	6	2	1	75	10	1	407	16	10	0	-1	16
14	39	9	6	2	1	75	10	1	408	6	5	707.58	49	15
14	39	9	6	2	1	75	10	1	409	16	4	8.56	49	1
14	39	9	6	2	1	75	10	1	410	16	6	0	-1	16
14	39	9	6	2	1	75	10	1	411	6	7	0	-1	16
14	39	9	6	2	1	75	10	1	412	16	7	233.33	49	5
14	39	9	6	2	1	75	10	1	413	6	4	689.36	49	14
14	39	9	6	2	1	75	10	1	414	16	8	11.2	49	1
14	39	9	6	2	1	75	10	1	415	6	2	0	-1	16
14	39	9	6	2	1	75	10	1	416	6	1	93.04	49	2
14	39	9	6	2	1	75	10	1	417	6	8	210.3	49	5
14	39	9	6	2	1	75	10	1	418	6	3	0	-1	16
14	39	9	6	2	1	75	10	1	419	6	2	108.79	49	3
14	39	9	6	2	1	75	10	1	420	6	10	210.29	49	5
14	39	9	6	2	1	75	10	1	421	16	3	0	-1	16
14	39	9	6	2	1	75	10	1	422	6	9	0	-1	16
14	39	9	6	2	1	75	10	1	423	16	1	26.24	49	1
14	39	9	6	2	1	75	10	1	423	16	1	258.68	49	6
14	39	9	6	2	1	75	10	1	424	6	7	0	-1	16
14	39	9	6	2	1	75	10	1	425	6	6	0	-1	16
14	39	9	6	2	1	75	10	1	426	16	6	210.37	49	5
14	39	9	6	2	1	75	10	1	426	16	6	413.3	49	9
14	39	9	6	2	1	75	10	1	427	6	5	660.13	49	14
14	39	9	6	2	1	75	10	1	428	16	7	9.27	49	1
14	39	9	6	2	1	75	10	1	429	6	8	0	-1	16
14	39	9	6	2	1	75	10	1	430	6	1	61.78	49	2
14	39	9	6	2	1	75	10	1	431	16	1	246.31	49	5
14	39	9	6	2	1	75	10	1	431	16	1	461.83	49	10
14	39	9	6	2	1	75	10	1	432	6	3	0	-1	16
14	39	9	6	2	1	75	10	1	433	6	4	8.77	49	1
14	39	9	6	2	1	75	10	1	433	6	4	257.91	49	6
14	39	9	6	2	1	75	10	1	434	6	6	0	-1	16
14	39	9	6	2	1	75	10	1	435	6	1	0	-1	16
14	39	9	6	2	1	75	10	1	436	6	4	214.83	49	5
14	39	9	6	2	1	75	10	1	436	6	4	462.63	49	10
14	39	9	6	2	1	75	10	1	436	6	4	664.92	49	14
14	39	9	6	2	1	75	10	1	437	6	10	8.95	49	1
14	39	9	6	2	1	75	10	1	437	6	10	258.64	49	6
14	39	9	6	2	1	75	10	1	438	6	5	184.65	49	4
14	39	9	6	2	1	75	10	1	439	16	10	218.73	49	5
14	39	9	6	2	1	75	10	1	440	6	7	780	49	16
14	39	9	6	2	1	75	10	1	441	6	2	8.79	49	1
14	39	9	6	2	1	75	10	1	442	6	9	113.19	49	3
14	39	9	6	2	1	75	10	1	443	6	8	10.58	49	1
14	39	9	6	2	1	75	10	1	444	6	3	166.26	49	4
14	39	9	6	2	1	75	10	1	445	6	5	59.73	49	2
14	39	9	6	2	1	75	10	1	446	6	4	283.21	49	6
14	39	9	6	2	1	75	10	1	447	6	9	0	-1	16
14	39	9	6	2	1	75	10	1	448	6	2	118.89	49	3
14	39	9	6	2	1	75	10	1	449	6	10	260.38	49	6
14	39	9	6	2	1	75	10	1	449	6	10	464.16	49	10
14	39	9	6	2	1	75	10	1	450	6	8	0	-1	16
