SubjectNum	Age	Gender	PressedTask	Block Type	Block Repeat Num	Response Rate	Onset	Block	Trial	ImgType	ImgNum	RT	PressedC	FrameC
4	23	9	6	4	1	75	10	1	1	6	5	0	-1	16
4	23	9	6	4	1	75	10	1	2	6	10	12	49	1
4	23	9	6	4	1	75	10	1	2	6	10	213.98	49	5
4	23	9	6	4	1	75	10	1	3	6	4	308.39	49	7
4	23	9	6	4	1	75	10	1	3	6	4	510.2	49	11
4	23	9	6	4	1	75	10	1	4	6	9	180.58	49	4
4	23	9	6	4	1	75	10	1	4	6	9	778.53	49	16
4	23	9	6	4	1	75	10	1	5	16	7	10.26	49	1
4	23	9	6	4	1	75	10	1	6	6	2	0	-1	16
4	23	9	6	4	1	75	10	1	7	6	3	72.65	49	2
4	23	9	6	4	1	75	10	1	7	6	3	761.82	49	16
4	23	9	6	4	1	75	10	1	8	16	9	9.84	49	1
4	23	9	6	4	1	75	10	1	9	6	8	716.99	49	15
4	23	9	6	4	1	75	10	1	10	16	2	10.12	49	1
4	23	9	6	4	1	75	10	1	10	16	2	660.11	49	14
4	23	9	6	4	1	75	10	1	11	6	7	8.15	49	1
4	23	9	6	4	1	75	10	1	11	6	7	209.85	49	5
4	23	9	6	4	1	75	10	1	12	6	6	32.3	49	1
4	23	9	6	4	1	75	10	1	13	6	1	96.39	49	2
4	23	9	6	4	1	75	10	1	14	16	5	123.62	49	3
4	23	9	6	4	1	75	10	1	15	6	5	719.07	49	15
4	23	9	6	4	1	75	10	1	16	6	2	8.21	49	1
4	23	9	6	4	1	75	10	1	16	6	2	770.85	49	16
4	23	9	6	4	1	75	10	1	17	6	4	13.6	49	1
4	23	9	6	4	1	75	10	1	18	6	9	184.97	49	4
4	23	9	6	4	1	75	10	1	19	6	10	135.3	49	3
4	23	9	6	4	1	75	10	1	20	16	1	185.22	49	4
4	23	9	6	4	1	75	10	1	21	6	3	718.77	49	15
4	23	9	6	4	1	75	10	1	22	16	10	8.4	49	1
4	23	9	6	4	1	75	10	1	23	6	7	8.38	49	1
4	23	9	6	4	1	75	10	1	23	6	7	263.68	49	6
4	23	9	6	4	1	75	10	1	23	6	7	725.67	49	15
4	23	9	6	4	1	75	10	1	24	16	4	7.86	49	1
4	23	9	6	4	1	75	10	1	25	6	8	0	-1	16
4	23	9	6	4	1	75	10	1	26	16	3	76.98	49	2
4	23	9	6	4	1	75	10	1	26	16	3	309.69	49	7
4	23	9	6	4	1	75	10	1	27	6	6	708.03	49	15
4	23	9	6	4	1	75	10	1	28	6	1	12.88	49	1
4	23	9	6	4	1	75	10	1	29	6	6	210.28	49	5
4	23	9	6	4	1	75	10	1	30	6	1	85.35	49	2
4	23	9	6	4	1	75	10	1	30	6	1	309.78	49	7
4	23	9	6	4	1	75	10	1	31	16	6	66.54	49	2
4	23	9	6	4	1	75	10	1	31	16	6	770.07	49	16
4	23	9	6	4	1	75	10	1	32	6	9	9.32	49	1
4	23	9	6	4	1	75	10	1	32	6	9	734.06	49	15
4	23	9	6	4	1	75	10	1	33	6	8	8.98	49	1
4	23	9	6	4	1	75	10	1	34	6	10	142.77	49	3
4	23	9	6	4	1	75	10	1	35	16	8	471.88	49	10
4	23	9	6	4	1	75	10	1	36	6	7	33.06	49	1
4	23	9	6	4	1	75	10	1	37	6	4	113.14	49	3
4	23	9	6	4	1	75	10	1	38	6	2	179.13	49	4
4	23	9	6	4	1	75	10	1	38	6	2	769.32	49	16
4	23	9	6	4	1	75	10	1	39	6	5	8.82	49	1
4	23	9	6	4	1	75	10	1	40	16	7	39.33	49	1
4	23	9	6	4	1	75	10	1	41	16	4	0	-1	16
4	23	9	6	4	1	75	10	1	42	6	3	0	-1	16
4	23	9	6	4	1	75	10	1	43	6	7	115.74	49	3
4	23	9	6	4	1	75	10	1	43	6	7	727.01	49	15
4	23	9	6	4	1	75	10	1	44	6	5	10.48	49	1
4	23	9	6	4	1	75	10	1	44	6	5	709.48	49	15
4	23	9	6	4	1	75	10	1	45	6	2	9.87	49	1
4	23	9	6	4	1	75	10	1	45	6	2	773.38	49	16
4	23	9	6	4	1	75	10	1	46	6	1	8.25	49	1
4	23	9	6	4	1	75	10	1	46	6	1	713.64	49	15
4	23	9	6	4	1	75	10	1	47	6	9	11.68	49	1
4	23	9	6	4	1	75	10	1	47	6	9	635.9	49	13
4	23	9	6	4	1	75	10	1	48	6	4	7.99	49	1
4	23	9	6	4	1	75	10	1	49	16	5	60.15	49	2
4	23	9	6	4	1	75	10	1	50	16	1	0	-1	16
4	23	9	6	4	1	75	10	1	51	6	10	0	-1	16
4	23	9	6	4	1	75	10	1	52	6	6	259.9	49	6
4	23	9	6	4	1	75	10	1	53	6	3	88.1	49	2
4	23	9	6	4	1	75	10	1	53	6	3	309.07	49	7
4	23	9	6	4	1	75	10	1	54	6	8	330.26	49	7
4	23	9	6	4	1	75	10	1	54	6	8	559.76	49	12
4	23	9	6	4	1	75	10	1	55	16	2	134.94	49	3
4	23	9	6	4	1	75	10	1	55	16	2	360.3	49	8
4	23	9	6	4	1	75	10	1	56	6	2	0	-1	16
4	23	9	6	4	1	75	10	1	57	6	10	11.34	49	1
4	23	9	6	4	1	75	10	1	57	6	10	260.69	49	6
4	23	9	6	4	1	75	10	1	58	6	9	63.12	49	2
4	23	9	6	4	1	75	10	1	58	6	9	308.14	49	7
4	23	9	6	4	1	75	10	1	59	16	10	337.57	49	7
4	23	9	6	4	1	75	10	1	59	16	10	559.65	49	12
4	23	9	6	4	1	75	10	1	60	6	1	329.5	49	7
4	23	9	6	4	1	75	10	1	61	6	8	15.03	49	1
4	23	9	6	4	1	75	10	1	61	6	8	259.25	49	6
4	23	9	6	4	1	75	10	1	62	6	3	8.56	49	1
4	23	9	6	4	1	75	10	1	62	6	3	208.79	49	5
4	23	9	6	4	1	75	10	1	62	6	3	724.59	49	15
4	23	9	6	4	1	75	10	1	63	6	6	12.13	49	1
4	23	9	6	4	1	75	10	1	63	6	6	712.35	49	15
4	23	9	6	4	1	75	10	1	64	6	5	8.11	49	1
4	23	9	6	4	1	75	10	1	64	6	5	610.31	49	13
4	23	9	6	4	1	75	10	1	65	6	7	8.59	49	1
4	23	9	6	4	1	75	10	1	65	6	7	619.55	49	13
4	23	9	6	4	1	75	10	1	66	6	4	12.77	49	1
4	23	9	6	4	1	75	10	1	67	6	7	111.49	49	3
4	23	9	6	4	1	75	10	1	67	6	7	312.27	49	7
4	23	9	6	4	1	75	10	1	68	6	4	112.17	49	3
4	23	9	6	4	1	75	10	1	69	6	10	289.54	49	6
4	23	9	6	4	1	75	10	1	69	6	10	511.86	49	11
4	23	9	6	4	1	75	10	1	70	6	2	278.97	49	6
4	23	9	6	4	1	75	10	1	70	6	2	511.4	49	11
4	23	9	6	4	1	75	10	1	71	6	1	88.78	49	2
4	23	9	6	4	1	75	10	1	71	6	1	310.7	49	7
4	23	9	6	4	1	75	10	1	72	6	9	270.61	49	6
4	23	9	6	4	1	75	10	1	73	6	5	20.32	49	1
4	23	9	6	4	1	75	10	1	73	6	5	707.23	49	15
4	23	9	6	4	1	75	10	1	74	6	6	7.76	49	1
4	23	9	6	4	1	75	10	1	74	6	6	625.2	49	13
4	23	9	6	4	1	75	10	1	75	6	3	9.3	49	1
4	23	9	6	4	1	75	10	1	76	6	8	232.73	49	5
4	23	9	6	4	1	75	10	1	77	6	5	234.08	49	5
4	23	9	6	4	1	75	10	1	78	16	9	125.27	49	3
4	23	9	6	4	1	75	10	1	78	16	9	360.94	49	8
4	23	9	6	4	1	75	10	1	79	16	6	0	-1	16
4	23	9	6	4	1	75	10	1	80	16	3	0	-1	16
4	23	9	6	4	1	75	10	1	81	16	8	0	-1	16
4	23	9	6	4	1	75	10	1	82	6	4	670.8	49	14
4	23	9	6	4	1	75	10	1	83	16	7	11.01	49	1
4	23	9	6	4	1	75	10	1	83	16	7	764.98	49	16
4	23	9	6	4	1	75	10	1	84	6	10	8.54	49	1
4	23	9	6	4	1	75	10	1	84	6	10	660.21	49	14
4	23	9	6	4	1	75	10	1	85	6	2	7.95	49	1
4	23	9	6	4	1	75	10	1	85	6	2	606.92	49	13
4	23	9	6	4	1	75	10	1	86	6	9	0	-1	16
4	23	9	6	4	1	75	10	1	87	6	7	57.47	49	2
4	23	9	6	4	1	75	10	1	88	6	8	117.02	49	3
4	23	9	6	4	1	75	10	1	88	6	8	359.83	49	8
4	23	9	6	4	1	75	10	1	89	6	6	287.54	49	6
4	23	9	6	4	1	75	10	1	89	6	6	508.71	49	11
4	23	9	6	4	1	75	10	1	90	6	3	320.52	49	7
4	23	9	6	4	1	75	10	1	90	6	3	741.74	49	15
4	23	9	6	4	1	75	10	1	91	6	1	8.96	49	1
4	23	9	6	4	1	75	10	1	91	6	1	738.46	49	15
4	23	9	6	4	1	75	10	1	92	6	7	10.45	49	1
4	23	9	6	4	1	75	10	1	93	16	9	77.91	49	2
4	23	9	6	4	1	75	10	1	93	16	9	316.36	49	7
4	23	9	6	4	1	75	10	1	94	6	5	709.84	49	15
4	23	9	6	4	1	75	10	1	95	6	2	12.13	49	1
4	23	9	6	4	1	75	10	1	95	6	2	760.43	49	16
4	23	9	6	4	1	75	10	1	96	6	1	9.57	49	1
4	23	9	6	4	1	75	10	1	97	6	9	124.14	49	3
4	23	9	6	4	1	75	10	1	98	16	2	185.91	49	4
4	23	9	6	4	1	75	10	1	99	6	4	0	-1	16
4	23	9	6	4	1	75	10	1	100	16	4	288.69	49	6
4	23	9	6	4	1	75	10	1	101	6	10	0	-1	16
4	23	9	6	4	1	75	10	1	102	6	3	407.69	49	9
4	23	9	6	4	1	75	10	1	102	6	3	609.98	49	13
4	23	9	6	4	1	75	10	1	103	6	6	13.59	49	1
4	23	9	6	4	1	75	10	1	104	6	8	374.86	49	8
4	23	9	6	4	1	75	10	1	105	6	5	212.11	49	5
4	23	9	6	4	1	75	10	1	105	6	5	741.87	49	15
4	23	9	6	4	1	75	10	1	106	6	9	10.67	49	1
4	23	9	6	4	1	75	10	1	106	6	9	715.55	49	15
4	23	9	6	4	1	75	10	1	107	16	10	10.84	49	1
4	23	9	6	4	1	75	10	1	108	6	4	71.89	49	2
4	23	9	6	4	1	75	10	1	108	6	4	309.04	49	7
4	23	9	6	4	1	75	10	1	108	6	4	660.54	49	14
4	23	9	6	4	1	75	10	1	109	16	1	9.28	49	1
4	23	9	6	4	1	75	10	1	109	16	1	772.43	49	16
4	23	9	6	4	1	75	10	1	110	6	2	8.06	49	1
4	23	9	6	4	1	75	10	1	110	6	2	256.9	49	6
4	23	9	6	4	1	75	10	1	111	6	10	209.59	49	5
4	23	9	6	4	1	75	10	1	111	6	10	779.01	49	16
4	23	9	6	4	1	75	10	1	112	6	6	7.9	49	1
4	23	9	6	4	1	75	10	1	112	6	6	209.21	49	5
4	23	9	6	4	1	75	10	1	113	16	5	107.03	49	3
4	23	9	6	4	1	75	10	1	113	16	5	757.23	49	16
4	23	9	6	4	1	75	10	1	114	6	3	7.86	49	1
4	23	9	6	4	1	75	10	1	114	6	3	257.24	49	6
4	23	9	6	4	1	75	10	1	114	6	3	540.42	49	11
4	23	9	6	4	1	75	10	1	114	6	3	757.14	49	16
4	23	9	6	4	1	75	10	1	115	6	7	0	-1	16
4	23	9	6	4	1	75	10	1	116	16	3	257.71	49	6
4	23	9	6	4	1	75	10	1	116	16	3	459.79	49	10
4	23	9	6	4	1	75	10	1	117	16	6	0	-1	16
4	23	9	6	4	1	75	10	1	118	16	8	611.26	49	13
4	23	9	6	4	1	75	10	1	119	6	8	10.94	49	1
4	23	9	6	4	1	75	10	1	119	6	8	759.94	49	16
4	23	9	6	4	1	75	10	1	120	6	1	10.5	49	1
4	23	9	6	4	1	75	10	1	121	16	5	10.25	49	1
4	23	9	6	4	1	75	10	1	122	6	5	659.91	49	14
4	23	9	6	4	1	75	10	1	123	6	2	8.14	49	1
4	23	9	6	4	1	75	10	1	124	16	4	35.29	49	1
4	23	9	6	4	1	75	10	1	125	16	9	137	49	3
4	23	9	6	4	1	75	10	1	126	16	10	112.57	49	3
4	23	9	6	4	1	75	10	1	127	6	10	757.06	49	16
4	23	9	6	4	1	75	10	1	128	16	2	7.75	49	1
4	23	9	6	4	1	75	10	1	129	16	6	686.13	49	14
4	23	9	6	4	1	75	10	1	130	16	8	8.96	49	1
4	23	9	6	4	1	75	10	1	131	16	7	10.7	49	1
4	23	9	6	4	1	75	10	1	131	16	7	709.98	49	15
4	23	9	6	4	1	75	10	1	132	6	9	9.92	49	1
4	23	9	6	4	1	75	10	1	133	6	4	12.96	49	1
4	23	9	6	4	1	75	10	1	134	6	8	113.18	49	3
4	23	9	6	4	1	75	10	1	135	6	7	114.91	49	3
4	23	9	6	4	1	75	10	1	136	6	3	158.54	49	4
4	23	9	6	4	1	75	10	1	137	6	6	136.34	49	3
4	23	9	6	4	1	75	10	1	137	6	6	683.7	49	14
4	23	9	6	4	1	75	10	1	138	6	1	7.54	49	1
4	23	9	6	4	1	75	10	1	138	6	1	714.95	49	15
4	23	9	6	4	1	75	10	1	139	16	3	7.54	49	1
4	23	9	6	4	1	75	10	1	140	16	1	766.05	49	16
4	23	9	6	4	1	75	10	1	141	16	6	7.9	49	1
4	23	9	6	4	1	75	10	1	141	16	6	209.65	49	5
4	23	9	6	4	1	75	10	1	142	6	7	712.3	49	15
4	23	9	6	4	1	75	10	1	143	6	2	8.07	49	1
4	23	9	6	4	1	75	10	1	144	16	10	111.01	49	3
4	23	9	6	4	1	75	10	1	145	6	10	0	-1	16
4	23	9	6	4	1	75	10	1	146	6	4	115.85	49	3
4	23	9	6	4	1	75	10	1	147	6	5	389.04	49	8
4	23	9	6	4	1	75	10	1	147	6	5	612.9	49	13
4	23	9	6	4	1	75	10	1	148	6	1	183.44	49	4
4	23	9	6	4	1	75	10	1	148	6	1	721.92	49	15
4	23	9	6	4	1	75	10	1	149	6	9	8.63	49	1
4	23	9	6	4	1	75	10	1	149	6	9	725.88	49	15
4	23	9	6	4	1	75	10	1	150	6	6	7.66	49	1
4	23	9	6	4	1	75	10	1	150	6	6	585.2	49	12
4	23	9	6	4	1	75	10	1	151	6	3	560.39	49	12
4	23	9	6	4	1	75	10	1	152	6	8	158.17	49	4
4	23	9	6	4	1	75	10	1	153	6	7	159.08	49	4
4	23	9	6	4	1	75	10	1	154	6	9	36.44	49	1
4	23	9	6	4	1	75	10	1	154	6	9	731.04	49	15
4	23	9	6	4	1	75	10	1	155	6	4	8.07	49	1
4	23	9	6	4	1	75	10	1	155	6	4	680.97	49	14
4	23	9	6	4	1	75	10	1	156	6	2	9.43	49	1
4	23	9	6	4	1	75	10	1	157	6	10	14.39	49	1
4	23	9	6	4	1	75	10	1	157	6	10	667.84	49	14
4	23	9	6	4	1	75	10	1	158	6	5	11.9	49	1
4	23	9	6	4	1	75	10	1	158	6	5	662.37	49	14
4	23	9	6	4	1	75	10	1	159	6	1	10.75	49	1
4	23	9	6	4	1	75	10	1	160	6	3	85.75	49	2
4	23	9	6	4	1	75	10	1	160	6	3	721.94	49	15
4	23	9	6	4	1	75	10	1	161	16	4	10.09	49	1
4	23	9	6	4	1	75	10	1	162	6	6	0	-1	16
4	23	9	6	4	1	75	10	1	163	16	8	191.59	49	4
4	23	9	6	4	1	75	10	1	163	16	8	408.84	49	9
4	23	9	6	4	1	75	10	1	164	6	8	0	-1	16
4	23	9	6	4	1	75	10	1	165	6	6	60.23	49	2
4	23	9	6	4	1	75	10	1	166	16	7	219.48	49	5
4	23	9	6	4	1	75	10	1	167	6	4	0	-1	16
4	23	9	6	4	1	75	10	1	168	6	5	215.43	49	5
4	23	9	6	4	1	75	10	1	168	6	5	420.04	49	9
4	23	9	6	4	1	75	10	1	169	6	10	166.55	49	4
4	23	9	6	4	1	75	10	1	169	6	10	368.1	49	8
4	23	9	6	4	1	75	10	1	170	6	9	219.35	49	5
4	23	9	6	4	1	75	10	1	171	6	7	118.42	49	3
4	23	9	6	4	1	75	10	1	172	16	5	29.91	49	1
4	23	9	6	4	1	75	10	1	172	16	5	260.48	49	6
4	23	9	6	4	1	75	10	1	173	6	2	0	-1	16
4	23	9	6	4	1	75	10	1	174	16	2	307.2	49	7
4	23	9	6	4	1	75	10	1	174	16	2	507.56	49	11
4	23	9	6	4	1	75	10	1	175	6	1	0	-1	16
4	23	9	6	4	1	75	10	1	176	6	8	38.07	49	1
4	23	9	6	4	1	75	10	1	176	6	8	716.25	49	15
4	23	9	6	4	1	75	10	1	177	6	3	7.53	49	1
4	23	9	6	4	1	75	10	1	177	6	3	708.18	49	15
4	23	9	6	4	1	75	10	1	178	6	5	8.21	49	1
4	23	9	6	4	1	75	10	1	178	6	5	676.31	49	14
4	23	9	6	4	1	75	10	1	179	6	4	8.36	49	1
4	23	9	6	4	1	75	10	1	179	6	4	711.46	49	15
4	23	9	6	4	1	75	10	1	180	6	2	10.52	49	1
4	23	9	6	4	1	75	10	1	181	6	10	209.77	49	5
4	23	9	6	4	1	75	10	1	181	6	10	412.52	49	9
4	23	9	6	4	1	75	10	1	182	6	9	310.05	49	7
4	23	9	6	4	1	75	10	1	182	6	9	511.28	49	11
4	23	9	6	4	1	75	10	1	183	6	6	311.65	49	7
4	23	9	6	4	1	75	10	1	184	16	9	0	-1	16
4	23	9	6	4	1	75	10	1	185	16	1	0	-1	16
4	23	9	6	4	1	75	10	1	186	6	8	93.38	49	2
4	23	9	6	4	1	75	10	1	187	6	7	72.02	49	2
4	23	9	6	4	1	75	10	1	187	6	7	757.42	49	16
4	23	9	6	4	1	75	10	1	188	6	3	8.19	49	1
4	23	9	6	4	1	75	10	1	189	6	1	57.23	49	2
4	23	9	6	4	1	75	10	1	189	6	1	259.16	49	6
4	23	9	6	4	1	75	10	1	189	6	1	709.3	49	15
4	23	9	6	4	1	75	10	1	190	6	6	7.8	49	1
4	23	9	6	4	1	75	10	1	190	6	6	657.32	49	14
4	23	9	6	4	1	75	10	1	191	16	3	7.9	49	1
4	23	9	6	4	1	75	10	1	192	6	4	70.22	49	2
4	23	9	6	4	1	75	10	1	193	6	1	309.65	49	7
4	23	9	6	4	1	75	10	1	194	6	2	122.24	49	3
4	23	9	6	4	1	75	10	1	194	6	2	740.92	49	15
4	23	9	6	4	1	75	10	1	195	16	6	10.34	49	1
4	23	9	6	4	1	75	10	1	196	6	5	660.95	49	14
4	23	9	6	4	1	75	10	1	197	6	9	9.94	49	1
4	23	9	6	4	1	75	10	1	198	16	8	83.12	49	2
4	23	9	6	4	1	75	10	1	199	16	10	162.61	49	4
4	23	9	6	4	1	75	10	1	200	6	10	0	-1	16
4	23	9	6	4	1	75	10	1	201	6	7	62.72	49	2
4	23	9	6	4	1	75	10	1	202	6	8	25.55	49	1
4	23	9	6	4	1	75	10	1	202	6	8	259.56	49	6
4	23	9	6	4	1	75	10	1	203	16	2	86.62	49	2
4	23	9	6	4	1	75	10	1	204	6	3	675.87	49	14
4	23	9	6	4	1	75	10	1	205	16	7	8.38	49	1
4	23	9	6	4	1	75	10	1	206	6	7	660.63	49	14
4	23	9	6	4	1	75	10	1	207	6	1	11.05	49	1
4	23	9	6	4	1	75	10	1	208	6	5	0	-1	16
4	23	9	6	4	1	75	10	1	209	16	1	160.22	49	4
4	23	9	6	4	1	75	10	1	210	6	10	0	-1	16
4	23	9	6	4	1	75	10	1	211	6	4	260.63	49	6
4	23	9	6	4	1	75	10	1	212	16	4	173.15	49	4
4	23	9	6	4	1	75	10	1	213	6	2	0	-1	16
4	23	9	6	4	1	75	10	1	214	6	9	257.4	49	6
4	23	9	6	4	1	75	10	1	215	16	5	0	-1	16
4	23	9	6	4	1	75	10	1	216	6	3	0	-1	16
4	23	9	6	4	1	75	10	1	217	6	6	232.07	49	5
4	23	9	6	4	1	75	10	1	217	6	6	457.02	49	10
4	23	9	6	4	1	75	10	1	218	6	8	61.56	49	2
4	23	9	6	4	1	75	10	1	219	6	6	227.32	49	5
4	23	9	6	4	1	75	10	1	220	6	4	389.74	49	8
4	23	9	6	4	1	75	10	1	221	16	9	326.73	49	7
4	23	9	6	4	1	75	10	1	222	6	9	0	-1	16
4	23	9	6	4	1	75	10	1	223	6	10	131.2	49	3
4	23	9	6	4	1	75	10	1	224	6	1	0	-1	16
4	23	9	6	4	1	75	10	1	225	16	3	120.38	49	3
4	23	9	6	4	1	75	10	1	225	16	3	356.83	49	8
4	23	9	6	4	1	75	10	1	226	6	2	0	-1	16
4	23	9	6	4	1	75	10	1	227	6	7	76.22	49	2
4	23	9	6	4	1	75	10	1	228	6	5	664.22	49	14
4	23	9	6	4	1	75	10	1	229	6	8	7.44	49	1
4	23	9	6	4	1	75	10	1	229	6	8	370.54	49	8
4	23	9	6	4	1	75	10	1	229	6	8	606.8	49	13
4	23	9	6	4	1	75	10	1	230	6	3	57.22	49	2
4	23	9	6	4	1	75	10	1	230	6	3	307.11	49	7
4	23	9	6	4	1	75	10	1	230	6	3	707.18	49	15
4	23	9	6	4	1	75	10	1	231	6	6	10.1	49	1
4	23	9	6	4	1	75	10	1	231	6	6	613.16	49	13
4	23	9	6	4	1	75	10	1	232	16	6	10.71	49	1
4	23	9	6	4	1	75	10	1	233	16	7	0	-1	16
4	23	9	6	4	1	75	10	1	234	6	5	0	-1	16
4	23	9	6	4	1	75	10	1	235	6	7	267.91	49	6
4	23	9	6	4	1	75	10	1	235	6	7	512.02	49	11
4	23	9	6	4	1	75	10	1	236	16	8	587.38	49	12
4	23	9	6	4	1	75	10	1	237	6	1	8.98	49	1
4	23	9	6	4	1	75	10	1	238	6	2	267.79	49	6
4	23	9	6	4	1	75	10	1	239	6	8	34.58	49	1
4	23	9	6	4	1	75	10	1	239	6	8	256.93	49	6
4	23	9	6	4	1	75	10	1	240	6	4	479	49	10
4	23	9	6	4	1	75	10	1	241	6	9	244.93	49	5
4	23	9	6	4	1	75	10	1	241	6	9	459.94	49	10
4	23	9	6	4	1	75	10	1	242	6	10	0	-1	16
4	23	9	6	4	1	75	10	1	243	6	3	408.79	49	9
4	23	9	6	4	1	75	10	1	243	6	3	609.49	49	13
4	23	9	6	4	1	75	10	1	244	16	5	459.86	49	10
4	23	9	6	4	1	75	10	1	245	6	7	0	-1	16
4	23	9	6	4	1	75	10	1	246	6	10	64.12	49	2
4	23	9	6	4	1	75	10	1	246	6	10	785.06	49	16
4	23	9	6	4	1	75	10	1	247	6	4	10.71	49	1
4	23	9	6	4	1	75	10	1	248	6	2	242.12	49	5
4	23	9	6	4	1	75	10	1	248	6	2	462.52	49	10
4	23	9	6	4	1	75	10	1	249	6	5	0	-1	16
4	23	9	6	4	1	75	10	1	250	16	2	210.49	49	5
4	23	9	6	4	1	75	10	1	251	16	1	214	49	5
4	23	9	6	4	1	75	10	1	252	6	1	317.17	49	7
4	23	9	6	4	1	75	10	1	253	16	4	357.2	49	8
4	23	9	6	4	1	75	10	1	253	16	4	559	49	12
4	23	9	6	4	1	75	10	1	254	6	9	236.7	49	5
4	23	9	6	4	1	75	10	1	255	6	6	194.72	49	4
4	23	9	6	4	1	75	10	1	255	6	6	410.04	49	9
4	23	9	6	4	1	75	10	1	256	6	3	167.48	49	4
4	23	9	6	4	1	75	10	1	257	6	8	275.07	49	6
4	23	9	6	4	1	75	10	1	258	6	6	0	-1	16
4	23	9	6	4	1	75	10	1	259	6	2	177.61	49	4
4	23	9	6	4	1	75	10	1	259	6	2	411.98	49	9
4	23	9	6	4	1	75	10	1	260	6	7	265.84	49	6
4	23	9	6	4	1	75	10	1	260	6	7	512.51	49	11
4	23	9	6	4	1	75	10	1	261	16	9	270.82	49	6
4	23	9	6	4	1	75	10	1	262	6	8	0	-1	16
4	23	9	6	4	1	75	10	1	263	6	5	166.17	49	4
4	23	9	6	4	1	75	10	1	264	6	9	38.72	49	1
4	23	9	6	4	1	75	10	1	264	6	9	758.5	49	16
4	23	9	6	4	1	75	10	1	265	16	10	10.2	49	1
4	23	9	6	4	1	75	10	1	266	6	1	322.85	49	7
4	23	9	6	4	1	75	10	1	267	6	4	237.59	49	5
4	23	9	6	4	1	75	10	1	267	6	4	457.16	49	10
4	23	9	6	4	1	75	10	1	268	6	10	782.89	49	16
4	23	9	6	4	1	75	10	1	269	16	3	8.34	49	1
4	23	9	6	4	1	75	10	1	270	6	3	787.93	49	16
4	23	9	6	4	1	75	10	1	271	16	7	10	49	1
4	23	9	6	4	1	75	10	1	272	6	6	526.94	49	11
4	23	9	6	4	1	75	10	1	273	16	1	13.12	49	1
4	23	9	6	4	1	75	10	1	274	6	8	0	-1	16
4	23	9	6	4	1	75	10	1	275	6	4	0	-1	16
4	23	9	6	4	1	75	10	1	276	16	10	20.52	49	1
4	23	9	6	4	1	75	10	1	276	16	10	258.13	49	6
4	23	9	6	4	1	75	10	1	277	6	10	0	-1	16
4	23	9	6	4	1	75	10	1	278	6	2	8.55	49	1
4	23	9	6	4	1	75	10	1	279	6	9	157.09	49	4
4	23	9	6	4	1	75	10	1	279	6	9	407.2	49	9
4	23	9	6	4	1	75	10	1	280	6	1	270.97	49	6
4	23	9	6	4	1	75	10	1	280	6	1	507.96	49	11
4	23	9	6	4	1	75	10	1	281	6	5	159.78	49	4
4	23	9	6	4	1	75	10	1	281	6	5	740.13	49	15
4	23	9	6	4	1	75	10	1	282	6	7	7.76	49	1
4	23	9	6	4	1	75	10	1	283	6	3	12.88	49	1
4	23	9	6	4	1	75	10	1	283	6	3	707.36	49	15
4	23	9	6	4	1	75	10	1	284	6	2	10.3	49	1
4	23	9	6	4	1	75	10	1	284	6	2	680.9	49	14
4	23	9	6	4	1	75	10	1	285	6	10	10.58	49	1
4	23	9	6	4	1	75	10	1	285	6	10	611.91	49	13
4	23	9	6	4	1	75	10	1	286	6	9	10.23	49	1
4	23	9	6	4	1	75	10	1	286	6	9	469.4	49	10
4	23	9	6	4	1	75	10	1	286	6	9	711.69	49	15
4	23	9	6	4	1	75	10	1	287	6	8	421.66	49	9
4	23	9	6	4	1	75	10	1	287	6	8	660.1	49	14
4	23	9	6	4	1	75	10	1	288	16	9	568.12	49	12
4	23	9	6	4	1	75	10	1	289	6	5	8.28	49	1
4	23	9	6	4	1	75	10	1	290	6	1	76.87	49	2
4	23	9	6	4	1	75	10	1	290	6	1	309.69	49	7
4	23	9	6	4	1	75	10	1	291	6	7	117.42	49	3
4	23	9	6	4	1	75	10	1	292	16	2	359.47	49	8
4	23	9	6	4	1	75	10	1	292	16	2	559.55	49	12
4	23	9	6	4	1	75	10	1	293	6	3	769.13	49	16
4	23	9	6	4	1	75	10	1	294	6	6	8.61	49	1
4	23	9	6	4	1	75	10	1	295	6	4	570.35	49	12
4	23	9	6	4	1	75	10	1	296	16	5	307.67	49	7
4	23	9	6	4	1	75	10	1	296	16	5	507.76	49	11
4	23	9	6	4	1	75	10	1	297	16	4	711.83	49	15
4	23	9	6	4	1	75	10	1	298	6	2	10.84	49	1
4	23	9	6	4	1	75	10	1	298	6	2	211.09	49	5
4	23	9	6	4	1	75	10	1	298	6	2	668.87	49	14
4	23	9	6	4	1	75	10	1	299	6	9	12.81	49	1
4	23	9	6	4	1	75	10	1	299	6	9	665.72	49	14
4	23	9	6	4	1	75	10	1	300	6	10	10.42	49	1
4	23	9	6	4	1	75	10	1	301	16	6	236.43	49	5
4	23	9	6	4	1	75	10	1	301	16	6	459.22	49	10
4	23	9	6	4	1	75	10	1	302	6	1	310.36	49	7
4	23	9	6	4	1	75	10	1	303	6	8	481.64	49	10
4	23	9	6	4	1	75	10	1	303	6	8	707.02	49	15
4	23	9	6	4	1	75	10	1	304	16	3	135.27	49	3
4	23	9	6	4	1	75	10	1	305	6	6	741.86	49	15
4	23	9	6	4	1	75	10	1	306	16	8	8.06	49	1
4	23	9	6	4	1	75	10	1	306	16	8	259.62	49	6
4	23	9	6	4	1	75	10	1	307	6	7	62.69	49	2
4	23	9	6	4	1	75	10	1	307	6	7	309.05	49	7
4	23	9	6	4	1	75	10	1	308	6	3	69.67	49	2
4	23	9	6	4	1	75	10	1	308	6	3	309.25	49	7
4	23	9	6	4	1	75	10	1	309	16	7	224.29	49	5
4	23	9	6	4	1	75	10	1	309	16	7	709.16	49	15
4	23	9	6	4	1	75	10	1	310	16	1	11.47	49	1
4	23	9	6	4	1	75	10	1	310	16	1	259.97	49	6
4	23	9	6	4	1	75	10	1	311	6	5	790.8	49	16
4	23	9	6	4	1	75	10	1	312	6	4	12.98	49	1
4	23	9	6	4	1	75	10	1	313	6	7	109.99	49	3
4	23	9	6	4	1	75	10	1	313	6	7	310.01	49	7
4	23	9	6	4	1	75	10	1	314	16	9	0	-1	16
4	23	9	6	4	1	75	10	1	315	6	9	627.97	49	13
4	23	9	6	4	1	75	10	1	316	16	4	8.19	49	1
4	23	9	6	4	1	75	10	1	317	6	2	209.04	49	5
4	23	9	6	4	1	75	10	1	317	6	2	409.31	49	9
4	23	9	6	4	1	75	10	1	318	6	4	13.95	49	1
4	23	9	6	4	1	75	10	1	318	6	4	259	49	6
4	23	9	6	4	1	75	10	1	319	16	5	0	-1	16
4	23	9	6	4	1	75	10	1	320	6	5	0	-1	16
4	23	9	6	4	1	75	10	1	321	6	1	212.11	49	5
4	23	9	6	4	1	75	10	1	321	6	1	759.58	49	16
4	23	9	6	4	1	75	10	1	322	6	10	8.81	49	1
4	23	9	6	4	1	75	10	1	322	6	10	761.11	49	16
4	23	9	6	4	1	75	10	1	323	16	10	9.17	49	1
4	23	9	6	4	1	75	10	1	324	16	2	236.28	49	5
4	23	9	6	4	1	75	10	1	324	16	2	459.49	49	10
4	23	9	6	4	1	75	10	1	324	16	2	709.04	49	15
4	23	9	6	4	1	75	10	1	325	6	6	7.89	49	1
4	23	9	6	4	1	75	10	1	325	6	6	209.32	49	5
4	23	9	6	4	1	75	10	1	325	6	6	458.89	49	10
4	23	9	6	4	1	75	10	1	326	6	3	114.72	49	3
4	23	9	6	4	1	75	10	1	326	6	3	356.92	49	8
4	23	9	6	4	1	75	10	1	327	6	8	256.67	49	6
4	23	9	6	4	1	75	10	1	327	6	8	457.03	49	10
4	23	9	6	4	1	75	10	1	328	6	5	0	-1	16
4	23	9	6	4	1	75	10	1	329	6	10	207.69	49	5
4	23	9	6	4	1	75	10	1	329	6	10	407.72	49	9
4	23	9	6	4	1	75	10	1	330	6	4	610.29	49	13
4	23	9	6	4	1	75	10	1	331	6	9	10.5	49	1
4	23	9	6	4	1	75	10	1	331	6	9	510.6	49	11
4	23	9	6	4	1	75	10	1	331	6	9	711.11	49	15
4	23	9	6	4	1	75	10	1	332	6	2	0	-1	16
4	23	9	6	4	1	75	10	1	333	6	8	225.59	49	5
4	23	9	6	4	1	75	10	1	334	6	7	165.19	49	4
4	23	9	6	4	1	75	10	1	335	6	3	485.13	49	10
4	23	9	6	4	1	75	10	1	335	6	3	708.16	49	15
4	23	9	6	4	1	75	10	1	336	6	6	0	-1	16
4	23	9	6	4	1	75	10	1	337	6	1	333.34	49	7
4	23	9	6	4	1	75	10	1	337	6	1	557.74	49	12
4	23	9	6	4	1	75	10	1	338	6	7	0	-1	16
4	23	9	6	4	1	75	10	1	339	6	9	559.13	49	12
4	23	9	6	4	1	75	10	1	339	6	9	759.56	49	16
4	23	9	6	4	1	75	10	1	340	6	4	8.81	49	1
4	23	9	6	4	1	75	10	1	340	6	4	257.52	49	6
4	23	9	6	4	1	75	10	1	340	6	4	506.54	49	11
4	23	9	6	4	1	75	10	1	341	6	10	0	-1	16
4	23	9	6	4	1	75	10	1	342	6	5	729.43	49	15
4	23	9	6	4	1	75	10	1	343	16	6	9.93	49	1
4	23	9	6	4	1	75	10	1	343	16	6	210.25	49	5
4	23	9	6	4	1	75	10	1	344	16	3	0	-1	16
4	23	9	6	4	1	75	10	1	345	16	8	0	-1	16
4	23	9	6	4	1	75	10	1	346	6	2	0	-1	16
4	23	9	6	4	1	75	10	1	347	16	2	62.26	49	2
4	23	9	6	4	1	75	10	1	347	16	2	308.19	49	7
4	23	9	6	4	1	75	10	1	348	6	1	0	-1	16
4	23	9	6	4	1	75	10	1	349	6	3	141.45	49	3
4	23	9	6	4	1	75	10	1	349	6	3	358.72	49	8
4	23	9	6	4	1	75	10	1	350	6	6	0	-1	16
4	23	9	6	4	1	75	10	1	351	6	8	62.67	49	2
4	23	9	6	4	1	75	10	1	352	6	2	0	-1	16
4	23	9	6	4	1	75	10	1	353	6	9	311.14	49	7
4	23	9	6	4	1	75	10	1	353	6	9	560.18	49	12
4	23	9	6	4	1	75	10	1	354	6	10	766.66	49	16
4	23	9	6	4	1	75	10	1	355	6	7	8.5	49	1
4	23	9	6	4	1	75	10	1	356	16	9	0	-1	16
4	23	9	6	4	1	75	10	1	357	6	1	12.82	49	1
4	23	9	6	4	1	75	10	1	357	6	1	259.52	49	6
4	23	9	6	4	1	75	10	1	357	6	1	459.67	49	10
4	23	9	6	4	1	75	10	1	357	6	1	660.09	49	14
4	23	9	6	4	1	75	10	1	358	6	6	60.35	49	2
4	23	9	6	4	1	75	10	1	359	6	5	79.62	49	2
4	23	9	6	4	1	75	10	1	359	6	5	311.46	49	7
4	23	9	6	4	1	75	10	1	360	6	8	0	-1	16
4	23	9	6	4	1	75	10	1	361	6	3	173.96	49	4
4	23	9	6	4	1	75	10	1	361	6	3	408.24	49	9
4	23	9	6	4	1	75	10	1	362	6	4	284.04	49	6
4	23	9	6	4	1	75	10	1	363	6	5	23.68	49	1
4	23	9	6	4	1	75	10	1	363	6	5	259.41	49	6
4	23	9	6	4	1	75	10	1	364	6	2	113.21	49	3
4	23	9	6	4	1	75	10	1	364	6	2	357.84	49	8
4	23	9	6	4	1	75	10	1	365	16	10	118.59	49	3
4	23	9	6	4	1	75	10	1	365	16	10	357.4	49	8
4	23	9	6	4	1	75	10	1	366	6	10	238.09	49	5
4	23	9	6	4	1	75	10	1	366	6	10	457.09	49	10
4	23	9	6	4	1	75	10	1	366	6	10	706.76	49	15
4	23	9	6	4	1	75	10	1	367	6	9	7.71	49	1
4	23	9	6	4	1	75	10	1	367	6	9	209.71	49	5
4	23	9	6	4	1	75	10	1	367	6	9	410.08	49	9
4	23	9	6	4	1	75	10	1	368	6	4	0	-1	16
4	23	9	6	4	1	75	10	1	369	6	3	0	-1	16
4	23	9	6	4	1	75	10	1	370	6	8	0	-1	16
4	23	9	6	4	1	75	10	1	371	6	7	210.97	49	5
4	23	9	6	4	1	75	10	1	372	6	6	185.96	49	4
4	23	9	6	4	1	75	10	1	372	6	6	410.43	49	9
4	23	9	6	4	1	75	10	1	373	6	1	312.65	49	7
4	23	9	6	4	1	75	10	1	373	6	1	512.93	49	11
4	23	9	6	4	1	75	10	1	374	6	2	0	-1	16
4	23	9	6	4	1	75	10	1	375	6	10	135.77	49	3
4	23	9	6	4	1	75	10	1	375	6	10	357.55	49	8
4	23	9	6	4	1	75	10	1	376	6	9	790.29	49	16
4	23	9	6	4	1	75	10	1	377	6	7	7.85	49	1
4	23	9	6	4	1	75	10	1	377	6	7	694.35	49	14
4	23	9	6	4	1	75	10	1	378	16	7	7.47	49	1
4	23	9	6	4	1	75	10	1	378	16	7	512.8	49	11
4	23	9	6	4	1	75	10	1	378	16	7	758.99	49	16
4	23	9	6	4	1	75	10	1	379	16	3	0	-1	16
4	23	9	6	4	1	75	10	1	380	16	5	0	-1	16
4	23	9	6	4	1	75	10	1	381	6	5	670.34	49	14
4	23	9	6	4	1	75	10	1	382	16	6	8.8	49	1
4	23	9	6	4	1	75	10	1	382	16	6	779.72	49	16
4	23	9	6	4	1	75	10	1	383	6	8	10.2	49	1
4	23	9	6	4	1	75	10	1	384	6	1	84.82	49	2
4	23	9	6	4	1	75	10	1	384	6	1	310.83	49	7
4	23	9	6	4	1	75	10	1	385	6	6	0	-1	16
4	23	9	6	4	1	75	10	1	386	6	3	80.86	49	2
4	23	9	6	4	1	75	10	1	386	6	3	309.9	49	7
4	23	9	6	4	1	75	10	1	387	16	8	0	-1	16
4	23	9	6	4	1	75	10	1	388	6	4	0	-1	16
4	23	9	6	4	1	75	10	1	389	6	7	492.63	49	10
4	23	9	6	4	1	75	10	1	389	6	7	709.9	49	15
4	23	9	6	4	1	75	10	1	390	6	1	408.33	49	9
4	23	9	6	4	1	75	10	1	391	6	2	0	-1	16
4	23	9	6	4	1	75	10	1	392	6	5	0	-1	16
4	23	9	6	4	1	75	10	1	393	16	1	23.35	49	1
4	23	9	6	4	1	75	10	1	393	16	1	259.54	49	6
4	23	9	6	4	1	75	10	1	394	6	10	0	-1	16
4	23	9	6	4	1	75	10	1	395	16	4	30.79	49	1
4	23	9	6	4	1	75	10	1	395	16	4	259.92	49	6
4	23	9	6	4	1	75	10	1	396	6	4	0	-1	16
4	23	9	6	4	1	75	10	1	397	6	9	675.49	49	14
4	23	9	6	4	1	75	10	1	398	6	6	10.1	49	1
4	23	9	6	4	1	75	10	1	398	6	6	481.39	49	10
4	23	9	6	4	1	75	10	1	398	6	6	710.12	49	15
4	23	9	6	4	1	75	10	1	399	6	3	0	-1	16
4	23	9	6	4	1	75	10	1	400	6	8	278.64	49	6
4	23	9	6	4	1	75	10	1	401	16	5	59.69	49	2
4	23	9	6	4	1	75	10	1	401	16	5	310.29	49	7
4	23	9	6	4	1	75	10	1	402	6	6	159.71	49	4
4	23	9	6	4	1	75	10	1	403	16	9	107.48	49	3
4	23	9	6	4	1	75	10	1	403	16	9	359.3	49	8
4	23	9	6	4	1	75	10	1	404	6	10	0	-1	16
4	23	9	6	4	1	75	10	1	405	6	9	311.1	49	7
4	23	9	6	4	1	75	10	1	405	6	9	557.39	49	12
4	23	9	6	4	1	75	10	1	406	16	2	76.06	49	2
4	23	9	6	4	1	75	10	1	406	16	2	309.88	49	7
4	23	9	6	4	1	75	10	1	407	16	10	0	-1	16
4	23	9	6	4	1	75	10	1	408	6	5	614.87	49	13
4	23	9	6	4	1	75	10	1	409	16	4	12.43	49	1
4	23	9	6	4	1	75	10	1	410	16	6	0	-1	16
4	23	9	6	4	1	75	10	1	411	6	7	564.08	49	12
4	23	9	6	4	1	75	10	1	412	16	7	0	-1	16
4	23	9	6	4	1	75	10	1	413	6	4	0	-1	16
4	23	9	6	4	1	75	10	1	414	16	8	208.46	49	5
4	23	9	6	4	1	75	10	1	414	16	8	408.54	49	9
4	23	9	6	4	1	75	10	1	414	16	8	770.98	49	16
4	23	9	6	4	1	75	10	1	415	6	2	10.57	49	1
4	23	9	6	4	1	75	10	1	415	6	2	785.75	49	16
4	23	9	6	4	1	75	10	1	416	6	1	10.24	49	1
4	23	9	6	4	1	75	10	1	417	6	8	409.75	49	9
4	23	9	6	4	1	75	10	1	417	6	8	657.43	49	14
4	23	9	6	4	1	75	10	1	418	6	3	0	-1	16
4	23	9	6	4	1	75	10	1	419	6	2	206.98	49	5
4	23	9	6	4	1	75	10	1	419	6	2	407.1	49	9
4	23	9	6	4	1	75	10	1	420	6	10	180.5	49	4
4	23	9	6	4	1	75	10	1	420	6	10	407.19	49	9
4	23	9	6	4	1	75	10	1	421	16	3	407.03	49	9
4	23	9	6	4	1	75	10	1	421	16	3	610.01	49	13
4	23	9	6	4	1	75	10	1	422	6	9	0	-1	16
4	23	9	6	4	1	75	10	1	423	16	1	188.27	49	4
4	23	9	6	4	1	75	10	1	423	16	1	411.33	49	9
4	23	9	6	4	1	75	10	1	424	6	7	0	-1	16
4	23	9	6	4	1	75	10	1	425	6	6	724.39	49	15
4	23	9	6	4	1	75	10	1	426	16	6	12.43	49	1
4	23	9	6	4	1	75	10	1	427	6	5	660.38	49	14
4	23	9	6	4	1	75	10	1	428	16	7	8.27	49	1
4	23	9	6	4	1	75	10	1	429	6	8	0	-1	16
4	23	9	6	4	1	75	10	1	430	6	1	407.36	49	9
4	23	9	6	4	1	75	10	1	430	6	1	656.91	49	14
4	23	9	6	4	1	75	10	1	431	16	1	619.93	49	13
4	23	9	6	4	1	75	10	1	432	6	3	7.57	49	1
4	23	9	6	4	1	75	10	1	433	6	4	277.09	49	6
4	23	9	6	4	1	75	10	1	433	6	4	509.38	49	11
4	23	9	6	4	1	75	10	1	433	6	4	771.95	49	16
4	23	9	6	4	1	75	10	1	434	6	6	7.75	49	1
4	23	9	6	4	1	75	10	1	434	6	6	208.94	49	5
4	23	9	6	4	1	75	10	1	435	6	1	9.85	49	1
4	23	9	6	4	1	75	10	1	436	6	4	424.06	49	9
4	23	9	6	4	1	75	10	1	436	6	4	659.46	49	14
4	23	9	6	4	1	75	10	1	437	6	10	34.15	49	1
4	23	9	6	4	1	75	10	1	437	6	10	259.72	49	6
4	23	9	6	4	1	75	10	1	438	6	5	359.96	49	8
4	23	9	6	4	1	75	10	1	438	6	5	609.88	49	13
4	23	9	6	4	1	75	10	1	439	16	10	362.48	49	8
4	23	9	6	4	1	75	10	1	440	6	7	0	-1	16
4	23	9	6	4	1	75	10	1	441	6	2	310.46	49	7
4	23	9	6	4	1	75	10	1	442	6	9	212.04	49	5
4	23	9	6	4	1	75	10	1	443	6	8	0	-1	16
4	23	9	6	4	1	75	10	1	444	6	3	261.95	49	6
4	23	9	6	4	1	75	10	1	444	6	3	509	49	11
4	23	9	6	4	1	75	10	1	445	6	5	142.07	49	3
4	23	9	6	4	1	75	10	1	445	6	5	357.05	49	8
4	23	9	6	4	1	75	10	1	446	6	4	57.11	49	2
4	23	9	6	4	1	75	10	1	446	6	4	306.68	49	7
4	23	9	6	4	1	75	10	1	447	6	9	384.51	49	8
4	23	9	6	4	1	75	10	1	447	6	9	625.6	49	13
4	23	9	6	4	1	75	10	1	448	6	2	307.77	49	7
4	23	9	6	4	1	75	10	1	448	6	2	510.8	49	11
4	23	9	6	4	1	75	10	1	449	6	10	310.12	49	7
4	23	9	6	4	1	75	10	1	450	6	8	0	-1	16
