SubjectNum	Age	Gender	PressedTask	Block Type	Block Repeat Num	Response Rate	Onset	Block	Trial	ImgType	ImgNum	RT	PressedC	FrameC
26	20	9	6	4	1	75	10	1	1	6	5	0	-1	16
26	20	9	6	4	1	75	10	1	2	6	10	376.92	49	8
26	20	9	6	4	1	75	10	1	3	6	4	629.36	49	13
26	20	9	6	4	1	75	10	1	4	6	9	0	-1	16
26	20	9	6	4	1	75	10	1	5	16	7	0	-1	16
26	20	9	6	4	1	75	10	1	6	6	2	725.5	49	15
26	20	9	6	4	1	75	10	1	7	6	3	710.94	49	15
26	20	9	6	4	1	75	10	1	8	16	9	0	-1	16
26	20	9	6	4	1	75	10	1	9	6	8	0	-1	16
26	20	9	6	4	1	75	10	1	10	16	2	620.01	49	13
26	20	9	6	4	1	75	10	1	11	6	7	0	-1	16
26	20	9	6	4	1	75	10	1	12	6	6	0	-1	16
26	20	9	6	4	1	75	10	1	13	6	1	0	-1	16
26	20	9	6	4	1	75	10	1	14	16	5	169.52	49	4
26	20	9	6	4	1	75	10	1	15	6	5	0	-1	16
26	20	9	6	4	1	75	10	1	16	6	2	0	-1	16
26	20	9	6	4	1	75	10	1	17	6	4	0	-1	16
26	20	9	6	4	1	75	10	1	18	6	9	0	-1	16
26	20	9	6	4	1	75	10	1	19	6	10	0	-1	16
26	20	9	6	4	1	75	10	1	20	16	1	288.45	49	6
26	20	9	6	4	1	75	10	1	21	6	3	646.24	49	13
26	20	9	6	4	1	75	10	1	22	16	10	0	-1	16
26	20	9	6	4	1	75	10	1	23	6	7	774.96	49	16
26	20	9	6	4	1	75	10	1	24	16	4	0	-1	16
26	20	9	6	4	1	75	10	1	25	6	8	0	-1	16
26	20	9	6	4	1	75	10	1	26	16	3	15.65	49	1
26	20	9	6	4	1	75	10	1	27	6	6	693.52	49	14
26	20	9	6	4	1	75	10	1	28	6	1	0	-1	16
26	20	9	6	4	1	75	10	1	29	6	6	128.21	49	3
26	20	9	6	4	1	75	10	1	30	6	1	0	-1	16
26	20	9	6	4	1	75	10	1	31	16	6	164.8	49	4
26	20	9	6	4	1	75	10	1	32	6	9	0	-1	16
26	20	9	6	4	1	75	10	1	33	6	8	0	-1	16
26	20	9	6	4	1	75	10	1	34	6	10	0	-1	16
26	20	9	6	4	1	75	10	1	35	16	8	126.17	49	3
26	20	9	6	4	1	75	10	1	36	6	7	0	-1	16
26	20	9	6	4	1	75	10	1	37	6	4	0	-1	16
26	20	9	6	4	1	75	10	1	38	6	2	0	-1	16
26	20	9	6	4	1	75	10	1	39	6	5	0	-1	16
26	20	9	6	4	1	75	10	1	40	16	7	0	-1	16
26	20	9	6	4	1	75	10	1	41	16	4	0	-1	16
26	20	9	6	4	1	75	10	1	42	6	3	0	-1	16
26	20	9	6	4	1	75	10	1	43	6	7	0	-1	16
26	20	9	6	4	1	75	10	1	44	6	5	627.27	49	13
26	20	9	6	4	1	75	10	1	45	6	2	0	-1	16
26	20	9	6	4	1	75	10	1	46	6	1	0	-1	16
26	20	9	6	4	1	75	10	1	47	6	9	0	-1	16
26	20	9	6	4	1	75	10	1	48	6	4	767.47	49	16
26	20	9	6	4	1	75	10	1	49	16	5	0	-1	16
26	20	9	6	4	1	75	10	1	50	16	1	0	-1	16
26	20	9	6	4	1	75	10	1	51	6	10	0	-1	16
26	20	9	6	4	1	75	10	1	52	6	6	0	-1	16
26	20	9	6	4	1	75	10	1	53	6	3	0	-1	16
26	20	9	6	4	1	75	10	1	54	6	8	71.67	49	2
26	20	9	6	4	1	75	10	1	55	16	2	28.57	49	1
26	20	9	6	4	1	75	10	1	56	6	2	0	-1	16
26	20	9	6	4	1	75	10	1	57	6	10	0	-1	16
26	20	9	6	4	1	75	10	1	58	6	9	0	-1	16
26	20	9	6	4	1	75	10	1	59	16	10	0	-1	16
26	20	9	6	4	1	75	10	1	60	6	1	0	-1	16
26	20	9	6	4	1	75	10	1	61	6	8	587.3	49	12
26	20	9	6	4	1	75	10	1	62	6	3	0	-1	16
26	20	9	6	4	1	75	10	1	63	6	6	0	-1	16
26	20	9	6	4	1	75	10	1	64	6	5	78.69	49	2
26	20	9	6	4	1	75	10	1	65	6	7	160.73	49	4
26	20	9	6	4	1	75	10	1	66	6	4	0	-1	16
26	20	9	6	4	1	75	10	1	67	6	7	740.55	49	15
26	20	9	6	4	1	75	10	1	68	6	4	792.73	49	16
26	20	9	6	4	1	75	10	1	69	6	10	0	-1	16
26	20	9	6	4	1	75	10	1	70	6	2	24.24	49	1
26	20	9	6	4	1	75	10	1	71	6	1	91.87	49	2
26	20	9	6	4	1	75	10	1	72	6	9	0	-1	16
26	20	9	6	4	1	75	10	1	73	6	5	674.42	49	14
26	20	9	6	4	1	75	10	1	74	6	6	0	-1	16
26	20	9	6	4	1	75	10	1	75	6	3	0	-1	16
26	20	9	6	4	1	75	10	1	76	6	8	20.73	49	1
26	20	9	6	4	1	75	10	1	77	6	5	132.59	49	3
26	20	9	6	4	1	75	10	1	78	16	9	0	-1	16
26	20	9	6	4	1	75	10	1	79	16	6	0	-1	16
26	20	9	6	4	1	75	10	1	80	16	3	0	-1	16
26	20	9	6	4	1	75	10	1	81	16	8	0	-1	16
26	20	9	6	4	1	75	10	1	82	6	4	0	-1	16
26	20	9	6	4	1	75	10	1	83	16	7	0	-1	16
26	20	9	6	4	1	75	10	1	84	6	10	0	-1	16
26	20	9	6	4	1	75	10	1	85	6	2	0	-1	16
26	20	9	6	4	1	75	10	1	86	6	9	0	-1	16
26	20	9	6	4	1	75	10	1	87	6	7	0	-1	16
26	20	9	6	4	1	75	10	1	88	6	8	0	-1	16
26	20	9	6	4	1	75	10	1	89	6	6	264.34	49	6
26	20	9	6	4	1	75	10	1	90	6	3	0	-1	16
26	20	9	6	4	1	75	10	1	91	6	1	0	-1	16
26	20	9	6	4	1	75	10	1	92	6	7	666.31	49	14
26	20	9	6	4	1	75	10	1	93	16	9	0	-1	16
26	20	9	6	4	1	75	10	1	94	6	5	617.83	49	13
26	20	9	6	4	1	75	10	1	95	6	2	0	-1	16
26	20	9	6	4	1	75	10	1	96	6	1	681.55	49	14
26	20	9	6	4	1	75	10	1	97	6	9	663.34	49	14
26	20	9	6	4	1	75	10	1	98	16	2	0	-1	16
26	20	9	6	4	1	75	10	1	99	6	4	0	-1	16
26	20	9	6	4	1	75	10	1	100	16	4	0	-1	16
26	20	9	6	4	1	75	10	1	101	6	10	0	-1	16
26	20	9	6	4	1	75	10	1	102	6	3	659.2	49	14
26	20	9	6	4	1	75	10	1	103	6	6	781.49	49	16
26	20	9	6	4	1	75	10	1	104	6	8	0	-1	16
26	20	9	6	4	1	75	10	1	105	6	5	141.79	49	3
26	20	9	6	4	1	75	10	1	106	6	9	0	-1	16
26	20	9	6	4	1	75	10	1	107	16	10	0	-1	16
26	20	9	6	4	1	75	10	1	108	6	4	666.83	49	14
26	20	9	6	4	1	75	10	1	109	16	1	0	-1	16
26	20	9	6	4	1	75	10	1	110	6	2	0	-1	16
26	20	9	6	4	1	75	10	1	111	6	10	0	-1	16
26	20	9	6	4	1	75	10	1	112	6	6	0	-1	16
26	20	9	6	4	1	75	10	1	113	16	5	0	-1	16
26	20	9	6	4	1	75	10	1	114	6	3	776.45	49	16
26	20	9	6	4	1	75	10	1	115	6	7	0	-1	16
26	20	9	6	4	1	75	10	1	116	16	3	36.87	49	1
26	20	9	6	4	1	75	10	1	117	16	6	0	-1	16
26	20	9	6	4	1	75	10	1	118	16	8	0	-1	16
26	20	9	6	4	1	75	10	1	119	6	8	688.03	49	14
26	20	9	6	4	1	75	10	1	120	6	1	792.63	49	16
26	20	9	6	4	1	75	10	1	121	16	5	0	-1	16
26	20	9	6	4	1	75	10	1	122	6	5	0	-1	16
26	20	9	6	4	1	75	10	1	123	6	2	726.61	49	15
26	20	9	6	4	1	75	10	1	124	16	4	0	-1	16
26	20	9	6	4	1	75	10	1	125	16	9	0	-1	16
26	20	9	6	4	1	75	10	1	126	16	10	0	-1	16
26	20	9	6	4	1	75	10	1	127	6	10	636.41	49	13
26	20	9	6	4	1	75	10	1	128	16	2	0	-1	16
26	20	9	6	4	1	75	10	1	129	16	6	0	-1	16
26	20	9	6	4	1	75	10	1	130	16	8	0	-1	16
26	20	9	6	4	1	75	10	1	131	16	7	0	-1	16
26	20	9	6	4	1	75	10	1	132	6	9	0	-1	16
26	20	9	6	4	1	75	10	1	133	6	4	0	-1	16
26	20	9	6	4	1	75	10	1	134	6	8	0	-1	16
26	20	9	6	4	1	75	10	1	135	6	7	0	-1	16
26	20	9	6	4	1	75	10	1	136	6	3	84.25	49	2
26	20	9	6	4	1	75	10	1	137	6	6	0	-1	16
26	20	9	6	4	1	75	10	1	138	6	1	0	-1	16
26	20	9	6	4	1	75	10	1	139	16	3	0	-1	16
26	20	9	6	4	1	75	10	1	140	16	1	0	-1	16
26	20	9	6	4	1	75	10	1	141	16	6	0	-1	16
26	20	9	6	4	1	75	10	1	142	6	7	0	-1	16
26	20	9	6	4	1	75	10	1	143	6	2	81.93	49	2
26	20	9	6	4	1	75	10	1	144	16	10	0	-1	16
26	20	9	6	4	1	75	10	1	145	6	10	609.85	49	13
26	20	9	6	4	1	75	10	1	146	6	4	0	-1	16
26	20	9	6	4	1	75	10	1	147	6	5	0	-1	16
26	20	9	6	4	1	75	10	1	148	6	1	180.57	49	4
26	20	9	6	4	1	75	10	1	149	6	9	63.69	49	2
26	20	9	6	4	1	75	10	1	149	6	9	711.92	49	15
26	20	9	6	4	1	75	10	1	150	6	6	0	-1	16
26	20	9	6	4	1	75	10	1	151	6	3	0	-1	16
26	20	9	6	4	1	75	10	1	152	6	8	0	-1	16
26	20	9	6	4	1	75	10	1	153	6	7	363.58	49	8
26	20	9	6	4	1	75	10	1	154	6	9	0	-1	16
26	20	9	6	4	1	75	10	1	155	6	4	0	-1	16
26	20	9	6	4	1	75	10	1	156	6	2	0	-1	16
26	20	9	6	4	1	75	10	1	157	6	10	0	-1	16
26	20	9	6	4	1	75	10	1	158	6	5	0	-1	16
26	20	9	6	4	1	75	10	1	159	6	1	0	-1	16
26	20	9	6	4	1	75	10	1	160	6	3	0	-1	16
26	20	9	6	4	1	75	10	1	161	16	4	0	-1	16
26	20	9	6	4	1	75	10	1	162	6	6	0	-1	16
26	20	9	6	4	1	75	10	1	163	16	8	0	-1	16
26	20	9	6	4	1	75	10	1	164	6	8	0	-1	16
26	20	9	6	4	1	75	10	1	165	6	6	0	-1	16
26	20	9	6	4	1	75	10	1	166	16	7	544.87	49	11
26	20	9	6	4	1	75	10	1	167	6	4	744.68	49	15
26	20	9	6	4	1	75	10	1	168	6	5	0	-1	16
26	20	9	6	4	1	75	10	1	169	6	10	0	-1	16
26	20	9	6	4	1	75	10	1	170	6	9	0	-1	16
26	20	9	6	4	1	75	10	1	171	6	7	15.33	49	1
26	20	9	6	4	1	75	10	1	172	16	5	0	-1	16
26	20	9	6	4	1	75	10	1	173	6	2	0	-1	16
26	20	9	6	4	1	75	10	1	174	16	2	0	-1	16
26	20	9	6	4	1	75	10	1	175	6	1	0	-1	16
26	20	9	6	4	1	75	10	1	176	6	8	0	-1	16
26	20	9	6	4	1	75	10	1	177	6	3	0	-1	16
26	20	9	6	4	1	75	10	1	178	6	5	0	-1	16
26	20	9	6	4	1	75	10	1	179	6	4	779.46	49	16
26	20	9	6	4	1	75	10	1	180	6	2	0	-1	16
26	20	9	6	4	1	75	10	1	181	6	10	0	-1	16
26	20	9	6	4	1	75	10	1	182	6	9	0	-1	16
26	20	9	6	4	1	75	10	1	183	6	6	0	-1	16
26	20	9	6	4	1	75	10	1	184	16	9	0	-1	16
26	20	9	6	4	1	75	10	1	185	16	1	0	-1	16
26	20	9	6	4	1	75	10	1	186	6	8	0	-1	16
26	20	9	6	4	1	75	10	1	187	6	7	0	-1	16
26	20	9	6	4	1	75	10	1	188	6	3	625.67	49	13
26	20	9	6	4	1	75	10	1	189	6	1	681.22	49	14
26	20	9	6	4	1	75	10	1	190	6	6	0	-1	16
26	20	9	6	4	1	75	10	1	191	16	3	0	-1	16
26	20	9	6	4	1	75	10	1	192	6	4	0	-1	16
26	20	9	6	4	1	75	10	1	193	6	1	0	-1	16
26	20	9	6	4	1	75	10	1	194	6	2	24.41	49	1
26	20	9	6	4	1	75	10	1	195	16	6	14.26	49	1
26	20	9	6	4	1	75	10	1	196	6	5	546.19	49	11
26	20	9	6	4	1	75	10	1	197	6	9	0	-1	16
26	20	9	6	4	1	75	10	1	198	16	8	0	-1	16
26	20	9	6	4	1	75	10	1	199	16	10	0	-1	16
26	20	9	6	4	1	75	10	1	200	6	10	0	-1	16
26	20	9	6	4	1	75	10	1	201	6	7	62.59	49	2
26	20	9	6	4	1	75	10	1	201	6	7	758.96	49	16
26	20	9	6	4	1	75	10	1	202	6	8	0	-1	16
26	20	9	6	4	1	75	10	1	203	16	2	78.78	49	2
26	20	9	6	4	1	75	10	1	204	6	3	0	-1	16
26	20	9	6	4	1	75	10	1	205	16	7	0	-1	16
26	20	9	6	4	1	75	10	1	206	6	7	774.34	49	16
26	20	9	6	4	1	75	10	1	207	6	1	0	-1	16
26	20	9	6	4	1	75	10	1	208	6	5	17.66	49	1
26	20	9	6	4	1	75	10	1	209	16	1	42.86	49	1
26	20	9	6	4	1	75	10	1	210	6	10	0	-1	16
26	20	9	6	4	1	75	10	1	211	6	4	0	-1	16
26	20	9	6	4	1	75	10	1	212	16	4	0	-1	16
26	20	9	6	4	1	75	10	1	213	6	2	0	-1	16
26	20	9	6	4	1	75	10	1	214	6	9	778.67	49	16
26	20	9	6	4	1	75	10	1	215	16	5	0	-1	16
26	20	9	6	4	1	75	10	1	216	6	3	0	-1	16
26	20	9	6	4	1	75	10	1	217	6	6	0	-1	16
26	20	9	6	4	1	75	10	1	218	6	8	0	-1	16
26	20	9	6	4	1	75	10	1	219	6	6	0	-1	16
26	20	9	6	4	1	75	10	1	220	6	4	630.37	49	13
26	20	9	6	4	1	75	10	1	221	16	9	0	-1	16
26	20	9	6	4	1	75	10	1	222	6	9	0	-1	16
26	20	9	6	4	1	75	10	1	223	6	10	0	-1	16
26	20	9	6	4	1	75	10	1	224	6	1	0	-1	16
26	20	9	6	4	1	75	10	1	225	16	3	0	-1	16
26	20	9	6	4	1	75	10	1	226	6	2	0	-1	16
26	20	9	6	4	1	75	10	1	227	6	7	0	-1	16
26	20	9	6	4	1	75	10	1	228	6	5	16.86	49	1
26	20	9	6	4	1	75	10	1	229	6	8	382.83	49	8
26	20	9	6	4	1	75	10	1	230	6	3	0	-1	16
26	20	9	6	4	1	75	10	1	231	6	6	11.36	49	1
26	20	9	6	4	1	75	10	1	232	16	6	0	-1	16
26	20	9	6	4	1	75	10	1	233	16	7	0	-1	16
26	20	9	6	4	1	75	10	1	234	6	5	782.14	49	16
26	20	9	6	4	1	75	10	1	235	6	7	0	-1	16
26	20	9	6	4	1	75	10	1	236	16	8	0	-1	16
26	20	9	6	4	1	75	10	1	237	6	1	0	-1	16
26	20	9	6	4	1	75	10	1	238	6	2	0	-1	16
26	20	9	6	4	1	75	10	1	239	6	8	66.75	49	2
26	20	9	6	4	1	75	10	1	240	6	4	0	-1	16
26	20	9	6	4	1	75	10	1	241	6	9	0	-1	16
26	20	9	6	4	1	75	10	1	242	6	10	644.09	49	13
26	20	9	6	4	1	75	10	1	243	6	3	0	-1	16
26	20	9	6	4	1	75	10	1	244	16	5	113.15	49	3
26	20	9	6	4	1	75	10	1	245	6	7	0	-1	16
26	20	9	6	4	1	75	10	1	246	6	10	0	-1	16
26	20	9	6	4	1	75	10	1	247	6	4	0	-1	16
26	20	9	6	4	1	75	10	1	248	6	2	0	-1	16
26	20	9	6	4	1	75	10	1	249	6	5	0	-1	16
26	20	9	6	4	1	75	10	1	250	16	2	0	-1	16
26	20	9	6	4	1	75	10	1	251	16	1	0	-1	16
26	20	9	6	4	1	75	10	1	252	6	1	0	-1	16
26	20	9	6	4	1	75	10	1	253	16	4	0	-1	16
26	20	9	6	4	1	75	10	1	254	6	9	0	-1	16
26	20	9	6	4	1	75	10	1	255	6	6	785.32	49	16
26	20	9	6	4	1	75	10	1	256	6	3	0	-1	16
26	20	9	6	4	1	75	10	1	257	6	8	793.72	49	16
26	20	9	6	4	1	75	10	1	258	6	6	0	-1	16
26	20	9	6	4	1	75	10	1	259	6	2	0	-1	16
26	20	9	6	4	1	75	10	1	260	6	7	0	-1	16
26	20	9	6	4	1	75	10	1	261	16	9	0	-1	16
26	20	9	6	4	1	75	10	1	262	6	8	724.55	49	15
26	20	9	6	4	1	75	10	1	263	6	5	612.49	49	13
26	20	9	6	4	1	75	10	1	264	6	9	512.76	49	11
26	20	9	6	4	1	75	10	1	265	16	10	0	-1	16
26	20	9	6	4	1	75	10	1	266	6	1	0	-1	16
26	20	9	6	4	1	75	10	1	267	6	4	0	-1	16
26	20	9	6	4	1	75	10	1	268	6	10	0	-1	16
26	20	9	6	4	1	75	10	1	269	16	3	0	-1	16
26	20	9	6	4	1	75	10	1	270	6	3	0	-1	16
26	20	9	6	4	1	75	10	1	271	16	7	0	-1	16
26	20	9	6	4	1	75	10	1	272	6	6	0	-1	16
26	20	9	6	4	1	75	10	1	273	16	1	0	-1	16
26	20	9	6	4	1	75	10	1	274	6	8	793.78	49	16
26	20	9	6	4	1	75	10	1	275	6	4	634.5	49	13
26	20	9	6	4	1	75	10	1	276	16	10	0	-1	16
26	20	9	6	4	1	75	10	1	277	6	10	0	-1	16
26	20	9	6	4	1	75	10	1	278	6	2	43.15	49	1
26	20	9	6	4	1	75	10	1	279	6	9	611.11	49	13
26	20	9	6	4	1	75	10	1	280	6	1	0	-1	16
26	20	9	6	4	1	75	10	1	281	6	5	0	-1	16
26	20	9	6	4	1	75	10	1	282	6	7	0	-1	16
26	20	9	6	4	1	75	10	1	283	6	3	0	-1	16
26	20	9	6	4	1	75	10	1	284	6	2	0	-1	16
26	20	9	6	4	1	75	10	1	285	6	10	0	-1	16
26	20	9	6	4	1	75	10	1	286	6	9	0	-1	16
26	20	9	6	4	1	75	10	1	287	6	8	41.65	49	1
26	20	9	6	4	1	75	10	1	288	16	9	0	-1	16
26	20	9	6	4	1	75	10	1	289	6	5	0	-1	16
26	20	9	6	4	1	75	10	1	290	6	1	0	-1	16
26	20	9	6	4	1	75	10	1	291	6	7	0	-1	16
26	20	9	6	4	1	75	10	1	292	16	2	0	-1	16
26	20	9	6	4	1	75	10	1	293	6	3	0	-1	16
26	20	9	6	4	1	75	10	1	294	6	6	0	-1	16
26	20	9	6	4	1	75	10	1	295	6	4	0	-1	16
26	20	9	6	4	1	75	10	1	296	16	5	0	-1	16
26	20	9	6	4	1	75	10	1	297	16	4	0	-1	16
26	20	9	6	4	1	75	10	1	298	6	2	0	-1	16
26	20	9	6	4	1	75	10	1	299	6	9	213.83	49	5
26	20	9	6	4	1	75	10	1	300	6	10	0	-1	16
26	20	9	6	4	1	75	10	1	301	16	6	0	-1	16
26	20	9	6	4	1	75	10	1	302	6	1	0	-1	16
26	20	9	6	4	1	75	10	1	303	6	8	0	-1	16
26	20	9	6	4	1	75	10	1	304	16	3	0	-1	16
26	20	9	6	4	1	75	10	1	305	6	6	689.48	49	14
26	20	9	6	4	1	75	10	1	306	16	8	0	-1	16
26	20	9	6	4	1	75	10	1	307	6	7	0	-1	16
26	20	9	6	4	1	75	10	1	308	6	3	659.36	49	14
26	20	9	6	4	1	75	10	1	309	16	7	0	-1	16
26	20	9	6	4	1	75	10	1	310	16	1	0	-1	16
26	20	9	6	4	1	75	10	1	311	6	5	0	-1	16
26	20	9	6	4	1	75	10	1	312	6	4	0	-1	16
26	20	9	6	4	1	75	10	1	313	6	7	0	-1	16
26	20	9	6	4	1	75	10	1	314	16	9	0	-1	16
26	20	9	6	4	1	75	10	1	315	6	9	0	-1	16
26	20	9	6	4	1	75	10	1	316	16	4	0	-1	16
26	20	9	6	4	1	75	10	1	317	6	2	0	-1	16
26	20	9	6	4	1	75	10	1	318	6	4	0	-1	16
26	20	9	6	4	1	75	10	1	319	16	5	0	-1	16
26	20	9	6	4	1	75	10	1	320	6	5	0	-1	16
26	20	9	6	4	1	75	10	1	321	6	1	0	-1	16
26	20	9	6	4	1	75	10	1	322	6	10	40.4	49	1
26	20	9	6	4	1	75	10	1	323	16	10	0	-1	16
26	20	9	6	4	1	75	10	1	324	16	2	0	-1	16
26	20	9	6	4	1	75	10	1	325	6	6	0	-1	16
26	20	9	6	4	1	75	10	1	326	6	3	70.21	49	2
26	20	9	6	4	1	75	10	1	327	6	8	112.74	49	3
26	20	9	6	4	1	75	10	1	328	6	5	0	-1	16
26	20	9	6	4	1	75	10	1	329	6	10	0	-1	16
26	20	9	6	4	1	75	10	1	330	6	4	244.2	49	5
26	20	9	6	4	1	75	10	1	331	6	9	0	-1	16
26	20	9	6	4	1	75	10	1	332	6	2	714.42	49	15
26	20	9	6	4	1	75	10	1	333	6	8	0	-1	16
26	20	9	6	4	1	75	10	1	334	6	7	272.73	49	6
26	20	9	6	4	1	75	10	1	335	6	3	0	-1	16
26	20	9	6	4	1	75	10	1	336	6	6	738.83	49	15
26	20	9	6	4	1	75	10	1	337	6	1	0	-1	16
26	20	9	6	4	1	75	10	1	338	6	7	0	-1	16
26	20	9	6	4	1	75	10	1	339	6	9	223.08	49	5
26	20	9	6	4	1	75	10	1	340	6	4	0	-1	16
26	20	9	6	4	1	75	10	1	341	6	10	764.18	49	16
26	20	9	6	4	1	75	10	1	342	6	5	0	-1	16
26	20	9	6	4	1	75	10	1	343	16	6	0	-1	16
26	20	9	6	4	1	75	10	1	344	16	3	0	-1	16
26	20	9	6	4	1	75	10	1	345	16	8	0	-1	16
26	20	9	6	4	1	75	10	1	346	6	2	0	-1	16
26	20	9	6	4	1	75	10	1	347	16	2	678.32	49	14
26	20	9	6	4	1	75	10	1	348	6	1	0	-1	16
26	20	9	6	4	1	75	10	1	349	6	3	0	-1	16
26	20	9	6	4	1	75	10	1	350	6	6	575.86	49	12
26	20	9	6	4	1	75	10	1	351	6	8	667.58	49	14
26	20	9	6	4	1	75	10	1	352	6	2	0	-1	16
26	20	9	6	4	1	75	10	1	353	6	9	770.32	49	16
26	20	9	6	4	1	75	10	1	354	6	10	0	-1	16
26	20	9	6	4	1	75	10	1	355	6	7	0	-1	16
26	20	9	6	4	1	75	10	1	356	16	9	113.97	49	3
26	20	9	6	4	1	75	10	1	357	6	1	0	-1	16
26	20	9	6	4	1	75	10	1	358	6	6	0	-1	16
26	20	9	6	4	1	75	10	1	359	6	5	0	-1	16
26	20	9	6	4	1	75	10	1	360	6	8	0	-1	16
26	20	9	6	4	1	75	10	1	361	6	3	0	-1	16
26	20	9	6	4	1	75	10	1	362	6	4	0	-1	16
26	20	9	6	4	1	75	10	1	363	6	5	0	-1	16
26	20	9	6	4	1	75	10	1	364	6	2	665.39	49	14
26	20	9	6	4	1	75	10	1	365	16	10	0	-1	16
26	20	9	6	4	1	75	10	1	366	6	10	0	-1	16
26	20	9	6	4	1	75	10	1	367	6	9	0	-1	16
26	20	9	6	4	1	75	10	1	368	6	4	113.59	49	3
26	20	9	6	4	1	75	10	1	369	6	3	275.23	49	6
26	20	9	6	4	1	75	10	1	370	6	8	0	-1	16
26	20	9	6	4	1	75	10	1	371	6	7	0	-1	16
26	20	9	6	4	1	75	10	1	372	6	6	0	-1	16
26	20	9	6	4	1	75	10	1	373	6	1	0	-1	16
26	20	9	6	4	1	75	10	1	374	6	2	0	-1	16
26	20	9	6	4	1	75	10	1	375	6	10	0	-1	16
26	20	9	6	4	1	75	10	1	376	6	9	629.21	49	13
26	20	9	6	4	1	75	10	1	377	6	7	0	-1	16
26	20	9	6	4	1	75	10	1	378	16	7	0	-1	16
26	20	9	6	4	1	75	10	1	379	16	3	0	-1	16
26	20	9	6	4	1	75	10	1	380	16	5	0	-1	16
26	20	9	6	4	1	75	10	1	381	6	5	0	-1	16
26	20	9	6	4	1	75	10	1	382	16	6	0	-1	16
26	20	9	6	4	1	75	10	1	383	6	8	744.2	49	15
26	20	9	6	4	1	75	10	1	384	6	1	0	-1	16
26	20	9	6	4	1	75	10	1	385	6	6	0	-1	16
26	20	9	6	4	1	75	10	1	386	6	3	229.93	49	5
26	20	9	6	4	1	75	10	1	386	6	3	660.12	49	14
26	20	9	6	4	1	75	10	1	387	16	8	0	-1	16
26	20	9	6	4	1	75	10	1	388	6	4	0	-1	16
26	20	9	6	4	1	75	10	1	389	6	7	0	-1	16
26	20	9	6	4	1	75	10	1	390	6	1	579.74	49	12
26	20	9	6	4	1	75	10	1	391	6	2	636.38	49	13
26	20	9	6	4	1	75	10	1	392	6	5	571.24	49	12
26	20	9	6	4	1	75	10	1	393	16	1	0	-1	16
26	20	9	6	4	1	75	10	1	394	6	10	0	-1	16
26	20	9	6	4	1	75	10	1	395	16	4	0	-1	16
26	20	9	6	4	1	75	10	1	396	6	4	0	-1	16
26	20	9	6	4	1	75	10	1	397	6	9	0	-1	16
26	20	9	6	4	1	75	10	1	398	6	6	669.7	49	14
26	20	9	6	4	1	75	10	1	399	6	3	0	-1	16
26	20	9	6	4	1	75	10	1	400	6	8	0	-1	16
26	20	9	6	4	1	75	10	1	401	16	5	616.49	49	13
26	20	9	6	4	1	75	10	1	402	6	6	0	-1	16
26	20	9	6	4	1	75	10	1	403	16	9	0	-1	16
26	20	9	6	4	1	75	10	1	404	6	10	663.04	49	14
26	20	9	6	4	1	75	10	1	405	6	9	730.94	49	15
26	20	9	6	4	1	75	10	1	406	16	2	0	-1	16
26	20	9	6	4	1	75	10	1	407	16	10	0	-1	16
26	20	9	6	4	1	75	10	1	408	6	5	0	-1	16
26	20	9	6	4	1	75	10	1	409	16	4	0	-1	16
26	20	9	6	4	1	75	10	1	410	16	6	0	-1	16
26	20	9	6	4	1	75	10	1	411	6	7	782.4	49	16
26	20	9	6	4	1	75	10	1	412	16	7	0	-1	16
26	20	9	6	4	1	75	10	1	413	6	4	0	-1	16
26	20	9	6	4	1	75	10	1	414	16	8	0	-1	16
26	20	9	6	4	1	75	10	1	415	6	2	0	-1	16
26	20	9	6	4	1	75	10	1	416	6	1	0	-1	16
26	20	9	6	4	1	75	10	1	417	6	8	0	-1	16
26	20	9	6	4	1	75	10	1	418	6	3	0	-1	16
26	20	9	6	4	1	75	10	1	419	6	2	0	-1	16
26	20	9	6	4	1	75	10	1	420	6	10	0	-1	16
26	20	9	6	4	1	75	10	1	421	16	3	0	-1	16
26	20	9	6	4	1	75	10	1	422	6	9	0	-1	16
26	20	9	6	4	1	75	10	1	423	16	1	0	-1	16
26	20	9	6	4	1	75	10	1	424	6	7	0	-1	16
26	20	9	6	4	1	75	10	1	425	6	6	572.3	49	12
26	20	9	6	4	1	75	10	1	426	16	6	0	-1	16
26	20	9	6	4	1	75	10	1	427	6	5	0	-1	16
26	20	9	6	4	1	75	10	1	428	16	7	0	-1	16
26	20	9	6	4	1	75	10	1	429	6	8	722.45	49	15
26	20	9	6	4	1	75	10	1	430	6	1	0	-1	16
26	20	9	6	4	1	75	10	1	431	16	1	19.56	49	1
26	20	9	6	4	1	75	10	1	432	6	3	0	-1	16
26	20	9	6	4	1	75	10	1	433	6	4	0	-1	16
26	20	9	6	4	1	75	10	1	434	6	6	0	-1	16
26	20	9	6	4	1	75	10	1	435	6	1	781.15	49	16
26	20	9	6	4	1	75	10	1	436	6	4	0	-1	16
26	20	9	6	4	1	75	10	1	437	6	10	0	-1	16
26	20	9	6	4	1	75	10	1	438	6	5	0	-1	16
26	20	9	6	4	1	75	10	1	439	16	10	0	-1	16
26	20	9	6	4	1	75	10	1	440	6	7	0	-1	16
26	20	9	6	4	1	75	10	1	441	6	2	0	-1	16
26	20	9	6	4	1	75	10	1	442	6	9	587.53	49	12
26	20	9	6	4	1	75	10	1	443	6	8	0	-1	16
26	20	9	6	4	1	75	10	1	444	6	3	0	-1	16
26	20	9	6	4	1	75	10	1	445	6	5	0	-1	16
26	20	9	6	4	1	75	10	1	446	6	4	0	-1	16
26	20	9	6	4	1	75	10	1	447	6	9	0	-1	16
26	20	9	6	4	1	75	10	1	448	6	2	0	-1	16
26	20	9	6	4	1	75	10	1	449	6	10	0	-1	16
26	20	9	6	4	1	75	10	1	450	6	8	0	-1	16
