SubjectNum	Age	Gender	PressedTask	Block Type	Block Repeat Num	Response Rate	Onset	Block	Trial	ImgType	ImgNum	RT	PressedC	FrameC
24	23	16	6	1	1	75	10	1	1	6	5	0	-1	16
24	23	16	6	1	1	75	10	1	2	6	10	140.98	49	3
24	23	16	6	1	1	75	10	1	3	6	4	280.85	49	6
24	23	16	6	1	1	75	10	1	4	6	9	88.71	49	2
24	23	16	6	1	1	75	10	1	5	16	7	8.53	49	1
24	23	16	6	1	1	75	10	1	5	16	7	209.48	49	5
24	23	16	6	1	1	75	10	1	6	6	2	0	-1	16
24	23	16	6	1	1	75	10	1	7	6	3	41.93	49	1
24	23	16	6	1	1	75	10	1	7	6	3	256.91	49	6
24	23	16	6	1	1	75	10	1	7	6	3	760.69	49	16
24	23	16	6	1	1	75	10	1	8	16	9	33.33	49	1
24	23	16	6	1	1	75	10	1	9	6	8	709.88	49	15
24	23	16	6	1	1	75	10	1	10	16	2	7.97	49	1
24	23	16	6	1	1	75	10	1	11	6	7	739.48	49	15
24	23	16	6	1	1	75	10	1	12	6	6	8.07	49	1
24	23	16	6	1	1	75	10	1	12	6	6	715.07	49	15
24	23	16	6	1	1	75	10	1	13	6	1	36.86	49	1
24	23	16	6	1	1	75	10	1	13	6	1	760.38	49	16
24	23	16	6	1	1	75	10	1	14	16	5	10.61	49	1
24	23	16	6	1	1	75	10	1	15	6	5	644.22	49	13
24	23	16	6	1	1	75	10	1	16	6	2	8.11	49	1
24	23	16	6	1	1	75	10	1	16	6	2	618.04	49	13
24	23	16	6	1	1	75	10	1	17	6	4	8.8	49	1
24	23	16	6	1	1	75	10	1	17	6	4	709.33	49	15
24	23	16	6	1	1	75	10	1	18	6	9	25.51	49	1
24	23	16	6	1	1	75	10	1	18	6	9	766.3	49	16
24	23	16	6	1	1	75	10	1	19	6	10	9.58	49	1
24	23	16	6	1	1	75	10	1	20	16	1	109.99	49	3
24	23	16	6	1	1	75	10	1	21	6	3	0	-1	16
24	23	16	6	1	1	75	10	1	22	16	10	31.91	49	1
24	23	16	6	1	1	75	10	1	23	6	7	632.77	49	13
24	23	16	6	1	1	75	10	1	24	16	4	10.16	49	1
24	23	16	6	1	1	75	10	1	25	6	8	0	-1	16
24	23	16	6	1	1	75	10	1	26	16	3	76.17	49	2
24	23	16	6	1	1	75	10	1	27	6	6	667.89	49	14
24	23	16	6	1	1	75	10	1	28	6	1	15.31	49	1
24	23	16	6	1	1	75	10	1	28	6	1	783.41	49	16
24	23	16	6	1	1	75	10	1	29	6	6	9.03	49	1
24	23	16	6	1	1	75	10	1	30	6	1	22.96	49	1
24	23	16	6	1	1	75	10	1	31	16	6	60.36	49	2
24	23	16	6	1	1	75	10	1	32	6	9	0	-1	16
24	23	16	6	1	1	75	10	1	33	6	8	114.74	49	3
24	23	16	6	1	1	75	10	1	34	6	10	419.91	49	9
24	23	16	6	1	1	75	10	1	35	16	8	158.24	49	4
24	23	16	6	1	1	75	10	1	36	6	7	60.73	49	2
24	23	16	6	1	1	75	10	1	36	6	7	636.64	49	13
24	23	16	6	1	1	75	10	1	37	6	4	8.25	49	1
24	23	16	6	1	1	75	10	1	38	6	2	111.5	49	3
24	23	16	6	1	1	75	10	1	39	6	5	108.41	49	3
24	23	16	6	1	1	75	10	1	40	16	7	184.5	49	4
24	23	16	6	1	1	75	10	1	41	16	4	0	-1	16
24	23	16	6	1	1	75	10	1	42	6	3	715.93	49	15
24	23	16	6	1	1	75	10	1	43	6	7	9.26	49	1
24	23	16	6	1	1	75	10	1	44	6	5	610.82	49	13
24	23	16	6	1	1	75	10	1	45	6	2	7.89	49	1
24	23	16	6	1	1	75	10	1	46	6	1	36.31	49	1
24	23	16	6	1	1	75	10	1	47	6	9	179.32	49	4
24	23	16	6	1	1	75	10	1	48	6	4	81.31	49	2
24	23	16	6	1	1	75	10	1	48	6	4	311.5	49	7
24	23	16	6	1	1	75	10	1	49	16	5	157.35	49	4
24	23	16	6	1	1	75	10	1	50	16	1	637.78	49	13
24	23	16	6	1	1	75	10	1	51	6	10	8.47	49	1
24	23	16	6	1	1	75	10	1	52	6	6	116.54	49	3
24	23	16	6	1	1	75	10	1	53	6	3	126.25	49	3
24	23	16	6	1	1	75	10	1	53	6	3	766.65	49	16
24	23	16	6	1	1	75	10	1	54	6	8	11.29	49	1
24	23	16	6	1	1	75	10	1	55	16	2	157.03	49	4
24	23	16	6	1	1	75	10	1	56	6	2	0	-1	16
24	23	16	6	1	1	75	10	1	57	6	10	159.28	49	4
24	23	16	6	1	1	75	10	1	58	6	9	18.84	49	1
24	23	16	6	1	1	75	10	1	59	16	10	13.72	49	1
24	23	16	6	1	1	75	10	1	60	6	1	620.77	49	13
24	23	16	6	1	1	75	10	1	61	6	8	7.93	49	1
24	23	16	6	1	1	75	10	1	61	6	8	766.58	49	16
24	23	16	6	1	1	75	10	1	62	6	3	7.86	49	1
24	23	16	6	1	1	75	10	1	63	6	6	12.45	49	1
24	23	16	6	1	1	75	10	1	64	6	5	162.62	49	4
24	23	16	6	1	1	75	10	1	64	6	5	763.08	49	16
24	23	16	6	1	1	75	10	1	65	6	7	10.08	49	1
24	23	16	6	1	1	75	10	1	66	6	4	0	-1	16
24	23	16	6	1	1	75	10	1	67	6	7	168.94	49	4
24	23	16	6	1	1	75	10	1	67	6	7	410.58	49	9
24	23	16	6	1	1	75	10	1	68	6	4	211.4	49	5
24	23	16	6	1	1	75	10	1	69	6	10	34.07	49	1
24	23	16	6	1	1	75	10	1	69	6	10	762.23	49	16
24	23	16	6	1	1	75	10	1	70	6	2	11.21	49	1
24	23	16	6	1	1	75	10	1	71	6	1	60.05	49	2
24	23	16	6	1	1	75	10	1	71	6	1	260.12	49	6
24	23	16	6	1	1	75	10	1	72	6	9	113.5	49	3
24	23	16	6	1	1	75	10	1	72	6	9	777.12	49	16
24	23	16	6	1	1	75	10	1	73	6	5	8.59	49	1
24	23	16	6	1	1	75	10	1	73	6	5	739.75	49	15
24	23	16	6	1	1	75	10	1	74	6	6	8.22	49	1
24	23	16	6	1	1	75	10	1	75	6	3	116.81	49	3
24	23	16	6	1	1	75	10	1	76	6	8	157.63	49	4
24	23	16	6	1	1	75	10	1	77	6	5	360.17	49	8
24	23	16	6	1	1	75	10	1	78	16	9	164.46	49	4
24	23	16	6	1	1	75	10	1	79	16	6	0	-1	16
24	23	16	6	1	1	75	10	1	80	16	3	0	-1	16
24	23	16	6	1	1	75	10	1	81	16	8	0	-1	16
24	23	16	6	1	1	75	10	1	82	6	4	688.38	49	14
24	23	16	6	1	1	75	10	1	83	16	7	8.38	49	1
24	23	16	6	1	1	75	10	1	84	6	10	0	-1	16
24	23	16	6	1	1	75	10	1	85	6	2	278.31	49	6
24	23	16	6	1	1	75	10	1	86	6	9	258.99	49	6
24	23	16	6	1	1	75	10	1	87	6	7	127.79	49	3
24	23	16	6	1	1	75	10	1	87	6	7	791.23	49	16
24	23	16	6	1	1	75	10	1	88	6	8	11.17	49	1
24	23	16	6	1	1	75	10	1	89	6	6	210.14	49	5
24	23	16	6	1	1	75	10	1	90	6	3	113.47	49	3
24	23	16	6	1	1	75	10	1	91	6	1	59.46	49	2
24	23	16	6	1	1	75	10	1	92	6	7	12.64	49	1
24	23	16	6	1	1	75	10	1	93	16	9	107.39	49	3
24	23	16	6	1	1	75	10	1	94	6	5	668.58	49	14
24	23	16	6	1	1	75	10	1	95	6	2	8.05	49	1
24	23	16	6	1	1	75	10	1	95	6	2	792.15	49	16
24	23	16	6	1	1	75	10	1	96	6	1	7.87	49	1
24	23	16	6	1	1	75	10	1	97	6	9	207.82	49	5
24	23	16	6	1	1	75	10	1	97	6	9	409.38	49	9
24	23	16	6	1	1	75	10	1	98	16	2	67.08	49	2
24	23	16	6	1	1	75	10	1	98	16	2	309.61	49	7
24	23	16	6	1	1	75	10	1	99	6	4	0	-1	16
24	23	16	6	1	1	75	10	1	100	16	4	141.29	49	3
24	23	16	6	1	1	75	10	1	101	6	10	0	-1	16
24	23	16	6	1	1	75	10	1	102	6	3	32.74	49	1
24	23	16	6	1	1	75	10	1	102	6	3	760.17	49	16
24	23	16	6	1	1	75	10	1	103	6	6	7.62	49	1
24	23	16	6	1	1	75	10	1	103	6	6	657.81	49	14
24	23	16	6	1	1	75	10	1	104	6	8	8.82	49	1
24	23	16	6	1	1	75	10	1	105	6	5	22.01	49	1
24	23	16	6	1	1	75	10	1	106	6	9	157.64	49	4
24	23	16	6	1	1	75	10	1	106	6	9	360.34	49	8
24	23	16	6	1	1	75	10	1	107	16	10	58.48	49	2
24	23	16	6	1	1	75	10	1	107	16	10	265.37	49	6
24	23	16	6	1	1	75	10	1	108	6	4	659.87	49	14
24	23	16	6	1	1	75	10	1	109	16	1	7.26	49	1
24	23	16	6	1	1	75	10	1	110	6	2	19.4	49	1
24	23	16	6	1	1	75	10	1	111	6	10	233.75	49	5
24	23	16	6	1	1	75	10	1	111	6	10	457.32	49	10
24	23	16	6	1	1	75	10	1	112	6	6	179.82	49	4
24	23	16	6	1	1	75	10	1	112	6	6	409.79	49	9
24	23	16	6	1	1	75	10	1	112	6	6	760.06	49	16
24	23	16	6	1	1	75	10	1	113	16	5	7.67	49	1
24	23	16	6	1	1	75	10	1	114	6	3	0	-1	16
24	23	16	6	1	1	75	10	1	115	6	7	58.53	49	2
24	23	16	6	1	1	75	10	1	116	16	3	85.17	49	2
24	23	16	6	1	1	75	10	1	116	16	3	310.6	49	7
24	23	16	6	1	1	75	10	1	116	16	3	732.52	49	15
24	23	16	6	1	1	75	10	1	117	16	6	10.1	49	1
24	23	16	6	1	1	75	10	1	118	16	8	0	-1	16
24	23	16	6	1	1	75	10	1	119	6	8	0	-1	16
24	23	16	6	1	1	75	10	1	120	6	1	7.72	49	1
24	23	16	6	1	1	75	10	1	121	16	5	112.09	49	3
24	23	16	6	1	1	75	10	1	122	6	5	0	-1	16
24	23	16	6	1	1	75	10	1	123	6	2	32.51	49	1
24	23	16	6	1	1	75	10	1	123	6	2	784.31	49	16
24	23	16	6	1	1	75	10	1	124	16	4	8.06	49	1
24	23	16	6	1	1	75	10	1	124	16	4	211.24	49	5
24	23	16	6	1	1	75	10	1	125	16	9	0	-1	16
24	23	16	6	1	1	75	10	1	126	16	10	0	-1	16
24	23	16	6	1	1	75	10	1	127	6	10	729.21	49	15
24	23	16	6	1	1	75	10	1	128	16	2	10.54	49	1
24	23	16	6	1	1	75	10	1	129	16	6	0	-1	16
24	23	16	6	1	1	75	10	1	130	16	8	0	-1	16
24	23	16	6	1	1	75	10	1	131	16	7	0	-1	16
24	23	16	6	1	1	75	10	1	132	6	9	790.49	49	16
24	23	16	6	1	1	75	10	1	133	6	4	10.97	49	1
24	23	16	6	1	1	75	10	1	133	6	4	734.81	49	15
24	23	16	6	1	1	75	10	1	134	6	8	10.35	49	1
24	23	16	6	1	1	75	10	1	135	6	7	271.72	49	6
24	23	16	6	1	1	75	10	1	135	6	7	507.82	49	11
24	23	16	6	1	1	75	10	1	136	6	3	189.2	49	4
24	23	16	6	1	1	75	10	1	136	6	3	411.44	49	9
24	23	16	6	1	1	75	10	1	137	6	6	110.18	49	3
24	23	16	6	1	1	75	10	1	138	6	1	260.49	49	6
24	23	16	6	1	1	75	10	1	139	16	3	136.49	49	3
24	23	16	6	1	1	75	10	1	140	16	1	0	-1	16
24	23	16	6	1	1	75	10	1	141	16	6	0	-1	16
24	23	16	6	1	1	75	10	1	142	6	7	0	-1	16
24	23	16	6	1	1	75	10	1	143	6	2	0	-1	16
24	23	16	6	1	1	75	10	1	144	16	10	361.94	49	8
24	23	16	6	1	1	75	10	1	145	6	10	0	-1	16
24	23	16	6	1	1	75	10	1	146	6	4	82.45	49	2
24	23	16	6	1	1	75	10	1	147	6	5	9.43	49	1
24	23	16	6	1	1	75	10	1	148	6	1	22.86	49	1
24	23	16	6	1	1	75	10	1	148	6	1	792.29	49	16
24	23	16	6	1	1	75	10	1	149	6	9	7.77	49	1
24	23	16	6	1	1	75	10	1	150	6	6	60.54	49	2
24	23	16	6	1	1	75	10	1	151	6	3	75.86	49	2
24	23	16	6	1	1	75	10	1	151	6	3	310.02	49	7
24	23	16	6	1	1	75	10	1	152	6	8	183.23	49	4
24	23	16	6	1	1	75	10	1	152	6	8	409.78	49	9
24	23	16	6	1	1	75	10	1	153	6	7	161.17	49	4
24	23	16	6	1	1	75	10	1	154	6	9	0	-1	16
24	23	16	6	1	1	75	10	1	155	6	4	120.77	49	3
24	23	16	6	1	1	75	10	1	155	6	4	760.35	49	16
24	23	16	6	1	1	75	10	1	156	6	2	7.69	49	1
24	23	16	6	1	1	75	10	1	157	6	10	68.77	49	2
24	23	16	6	1	1	75	10	1	158	6	5	30.53	49	1
24	23	16	6	1	1	75	10	1	158	6	5	707.4	49	15
24	23	16	6	1	1	75	10	1	159	6	1	10.18	49	1
24	23	16	6	1	1	75	10	1	159	6	1	707.22	49	15
24	23	16	6	1	1	75	10	1	160	6	3	8.74	49	1
24	23	16	6	1	1	75	10	1	160	6	3	675.46	49	14
24	23	16	6	1	1	75	10	1	161	16	4	7.74	49	1
24	23	16	6	1	1	75	10	1	162	6	6	0	-1	16
24	23	16	6	1	1	75	10	1	163	16	8	384.9	49	8
24	23	16	6	1	1	75	10	1	163	16	8	611.78	49	13
24	23	16	6	1	1	75	10	1	164	6	8	761.89	49	16
24	23	16	6	1	1	75	10	1	165	6	6	8.87	49	1
24	23	16	6	1	1	75	10	1	165	6	6	778	49	16
24	23	16	6	1	1	75	10	1	166	16	7	8.84	49	1
24	23	16	6	1	1	75	10	1	167	6	4	623.2	49	13
24	23	16	6	1	1	75	10	1	168	6	5	10.21	49	1
24	23	16	6	1	1	75	10	1	168	6	5	710.23	49	15
24	23	16	6	1	1	75	10	1	169	6	10	10.43	49	1
24	23	16	6	1	1	75	10	1	170	6	9	38.69	49	1
24	23	16	6	1	1	75	10	1	170	6	9	757.21	49	16
24	23	16	6	1	1	75	10	1	171	6	7	7.83	49	1
24	23	16	6	1	1	75	10	1	172	16	5	794.09	49	16
24	23	16	6	1	1	75	10	1	173	6	2	7.95	49	1
24	23	16	6	1	1	75	10	1	173	6	2	257.38	49	6
24	23	16	6	1	1	75	10	1	173	6	2	624.3	49	13
24	23	16	6	1	1	75	10	1	174	16	2	8.5	49	1
24	23	16	6	1	1	75	10	1	174	16	2	788.06	49	16
24	23	16	6	1	1	75	10	1	175	6	1	13.44	49	1
24	23	16	6	1	1	75	10	1	175	6	1	761.64	49	16
24	23	16	6	1	1	75	10	1	176	6	8	8.39	49	1
24	23	16	6	1	1	75	10	1	177	6	3	8.03	49	1
24	23	16	6	1	1	75	10	1	178	6	5	189.57	49	4
24	23	16	6	1	1	75	10	1	179	6	4	109.28	49	3
24	23	16	6	1	1	75	10	1	179	6	4	722.61	49	15
24	23	16	6	1	1	75	10	1	180	6	2	11.01	49	1
24	23	16	6	1	1	75	10	1	181	6	10	11.09	49	1
24	23	16	6	1	1	75	10	1	181	6	10	786.16	49	16
24	23	16	6	1	1	75	10	1	182	6	9	7.79	49	1
24	23	16	6	1	1	75	10	1	182	6	9	209.9	49	5
24	23	16	6	1	1	75	10	1	182	6	9	762.43	49	16
24	23	16	6	1	1	75	10	1	183	6	6	11.49	49	1
24	23	16	6	1	1	75	10	1	183	6	6	768.18	49	16
24	23	16	6	1	1	75	10	1	184	16	9	8.72	49	1
24	23	16	6	1	1	75	10	1	185	16	1	0	-1	16
24	23	16	6	1	1	75	10	1	186	6	8	0	-1	16
24	23	16	6	1	1	75	10	1	187	6	7	139.85	49	3
24	23	16	6	1	1	75	10	1	187	6	7	358.01	49	8
24	23	16	6	1	1	75	10	1	188	6	3	13.62	49	1
24	23	16	6	1	1	75	10	1	188	6	3	795	49	16
24	23	16	6	1	1	75	10	1	189	6	1	8.39	49	1
24	23	16	6	1	1	75	10	1	190	6	6	43.59	49	1
24	23	16	6	1	1	75	10	1	191	16	3	25.64	49	1
24	23	16	6	1	1	75	10	1	192	6	4	58.2	49	2
24	23	16	6	1	1	75	10	1	193	6	1	58.07	49	2
24	23	16	6	1	1	75	10	1	194	6	2	24.55	49	1
24	23	16	6	1	1	75	10	1	194	6	2	773.69	49	16
24	23	16	6	1	1	75	10	1	195	16	6	9.07	49	1
24	23	16	6	1	1	75	10	1	196	6	5	0	-1	16
24	23	16	6	1	1	75	10	1	197	6	9	162.71	49	4
24	23	16	6	1	1	75	10	1	197	6	9	790.6	49	16
24	23	16	6	1	1	75	10	1	198	16	8	8.21	49	1
24	23	16	6	1	1	75	10	1	199	16	10	0	-1	16
24	23	16	6	1	1	75	10	1	200	6	10	795.5	49	16
24	23	16	6	1	1	75	10	1	201	6	7	9.53	49	1
24	23	16	6	1	1	75	10	1	202	6	8	66.64	49	2
24	23	16	6	1	1	75	10	1	203	16	2	107.05	49	3
24	23	16	6	1	1	75	10	1	203	16	2	307.82	49	7
24	23	16	6	1	1	75	10	1	204	6	3	707.57	49	15
24	23	16	6	1	1	75	10	1	205	16	7	8.34	49	1
24	23	16	6	1	1	75	10	1	206	6	7	759.91	49	16
24	23	16	6	1	1	75	10	1	207	6	1	7.87	49	1
24	23	16	6	1	1	75	10	1	208	6	5	10.94	49	1
24	23	16	6	1	1	75	10	1	208	6	5	257.13	49	6
24	23	16	6	1	1	75	10	1	208	6	5	789.28	49	16
24	23	16	6	1	1	75	10	1	209	16	1	8.12	49	1
24	23	16	6	1	1	75	10	1	210	6	10	0	-1	16
24	23	16	6	1	1	75	10	1	211	6	4	19.63	49	1
24	23	16	6	1	1	75	10	1	211	6	4	260.1	49	6
24	23	16	6	1	1	75	10	1	212	16	4	7.9	49	1
24	23	16	6	1	1	75	10	1	212	16	4	209.65	49	5
24	23	16	6	1	1	75	10	1	213	6	2	0	-1	16
24	23	16	6	1	1	75	10	1	214	6	9	88.26	49	2
24	23	16	6	1	1	75	10	1	214	6	9	307.54	49	7
24	23	16	6	1	1	75	10	1	215	16	5	260.72	49	6
24	23	16	6	1	1	75	10	1	215	16	5	462.07	49	10
24	23	16	6	1	1	75	10	1	216	6	3	738.49	49	15
24	23	16	6	1	1	75	10	1	217	6	6	8.06	49	1
24	23	16	6	1	1	75	10	1	218	6	8	25.4	49	1
24	23	16	6	1	1	75	10	1	219	6	6	115.53	49	3
24	23	16	6	1	1	75	10	1	220	6	4	0	-1	16
24	23	16	6	1	1	75	10	1	221	16	9	70.43	49	2
24	23	16	6	1	1	75	10	1	221	16	9	310.16	49	7
24	23	16	6	1	1	75	10	1	222	6	9	777.54	49	16
24	23	16	6	1	1	75	10	1	223	6	10	8.37	49	1
24	23	16	6	1	1	75	10	1	223	6	10	760.1	49	16
24	23	16	6	1	1	75	10	1	224	6	1	8.08	49	1
24	23	16	6	1	1	75	10	1	225	16	3	107.5	49	3
24	23	16	6	1	1	75	10	1	225	16	3	308.63	49	7
24	23	16	6	1	1	75	10	1	226	6	2	0	-1	16
24	23	16	6	1	1	75	10	1	227	6	7	111.72	49	3
24	23	16	6	1	1	75	10	1	228	6	5	739.96	49	15
24	23	16	6	1	1	75	10	1	229	6	8	7.93	49	1
24	23	16	6	1	1	75	10	1	230	6	3	0	-1	16
24	23	16	6	1	1	75	10	1	231	6	6	271.62	49	6
24	23	16	6	1	1	75	10	1	231	6	6	742.37	49	15
24	23	16	6	1	1	75	10	1	232	16	6	8.13	49	1
24	23	16	6	1	1	75	10	1	233	16	7	0	-1	16
24	23	16	6	1	1	75	10	1	234	6	5	766	49	16
24	23	16	6	1	1	75	10	1	235	6	7	8.12	49	1
24	23	16	6	1	1	75	10	1	236	16	8	734.35	49	15
24	23	16	6	1	1	75	10	1	237	6	1	7.89	49	1
24	23	16	6	1	1	75	10	1	237	6	1	532.2	49	11
24	23	16	6	1	1	75	10	1	237	6	1	757.2	49	16
24	23	16	6	1	1	75	10	1	238	6	2	0	-1	16
24	23	16	6	1	1	75	10	1	239	6	8	94.25	49	2
24	23	16	6	1	1	75	10	1	239	6	8	311.02	49	7
24	23	16	6	1	1	75	10	1	240	6	4	258.21	49	6
24	23	16	6	1	1	75	10	1	240	6	4	459.69	49	10
24	23	16	6	1	1	75	10	1	241	6	9	710.19	49	15
24	23	16	6	1	1	75	10	1	242	6	10	7.73	49	1
24	23	16	6	1	1	75	10	1	243	6	3	331.02	49	7
24	23	16	6	1	1	75	10	1	243	6	3	558.09	49	12
24	23	16	6	1	1	75	10	1	244	16	5	79.2	49	2
24	23	16	6	1	1	75	10	1	244	16	5	307.3	49	7
24	23	16	6	1	1	75	10	1	245	6	7	0	-1	16
24	23	16	6	1	1	75	10	1	246	6	10	410.23	49	9
24	23	16	6	1	1	75	10	1	247	6	4	309.78	49	7
24	23	16	6	1	1	75	10	1	248	6	2	189.54	49	4
24	23	16	6	1	1	75	10	1	248	6	2	407.65	49	9
24	23	16	6	1	1	75	10	1	249	6	5	589.31	49	12
24	23	16	6	1	1	75	10	1	250	16	2	325.4	49	7
24	23	16	6	1	1	75	10	1	250	16	2	560.09	49	12
24	23	16	6	1	1	75	10	1	251	16	1	0	-1	16
24	23	16	6	1	1	75	10	1	252	6	1	729.72	49	15
24	23	16	6	1	1	75	10	1	253	16	4	8.19	49	1
24	23	16	6	1	1	75	10	1	254	6	9	0	-1	16
24	23	16	6	1	1	75	10	1	255	6	6	88.13	49	2
24	23	16	6	1	1	75	10	1	256	6	3	83.35	49	2
24	23	16	6	1	1	75	10	1	257	6	8	208.09	49	5
24	23	16	6	1	1	75	10	1	257	6	8	408.17	49	9
24	23	16	6	1	1	75	10	1	258	6	6	239.98	49	5
24	23	16	6	1	1	75	10	1	258	6	6	459.46	49	10
24	23	16	6	1	1	75	10	1	259	6	2	222.72	49	5
24	23	16	6	1	1	75	10	1	259	6	2	460.48	49	10
24	23	16	6	1	1	75	10	1	260	6	7	727.23	49	15
24	23	16	6	1	1	75	10	1	261	16	9	8.26	49	1
24	23	16	6	1	1	75	10	1	261	16	9	687.64	49	14
24	23	16	6	1	1	75	10	1	262	6	8	8.23	49	1
24	23	16	6	1	1	75	10	1	263	6	5	77.07	49	2
24	23	16	6	1	1	75	10	1	263	6	5	307.3	49	7
24	23	16	6	1	1	75	10	1	263	6	5	710.73	49	15
24	23	16	6	1	1	75	10	1	264	6	9	8.17	49	1
24	23	16	6	1	1	75	10	1	264	6	9	744.68	49	15
24	23	16	6	1	1	75	10	1	265	16	10	8.28	49	1
24	23	16	6	1	1	75	10	1	266	6	1	0	-1	16
24	23	16	6	1	1	75	10	1	267	6	4	10.56	49	1
24	23	16	6	1	1	75	10	1	268	6	10	76.69	49	2
24	23	16	6	1	1	75	10	1	268	6	10	309.91	49	7
24	23	16	6	1	1	75	10	1	269	16	3	112.66	49	3
24	23	16	6	1	1	75	10	1	270	6	3	0	-1	16
24	23	16	6	1	1	75	10	1	271	16	7	109.22	49	3
24	23	16	6	1	1	75	10	1	272	6	6	0	-1	16
24	23	16	6	1	1	75	10	1	273	16	1	77.55	49	2
24	23	16	6	1	1	75	10	1	273	16	1	307.49	49	7
24	23	16	6	1	1	75	10	1	274	6	8	575.55	49	12
24	23	16	6	1	1	75	10	1	275	6	4	8.99	49	1
24	23	16	6	1	1	75	10	1	276	16	10	457.39	49	10
24	23	16	6	1	1	75	10	1	277	6	10	0	-1	16
24	23	16	6	1	1	75	10	1	278	6	2	324.07	49	7
24	23	16	6	1	1	75	10	1	279	6	9	190.82	49	4
24	23	16	6	1	1	75	10	1	279	6	9	410.58	49	9
24	23	16	6	1	1	75	10	1	280	6	1	208.33	49	5
24	23	16	6	1	1	75	10	1	280	6	1	463.02	49	10
24	23	16	6	1	1	75	10	1	281	6	5	111.55	49	3
24	23	16	6	1	1	75	10	1	281	6	5	359.57	49	8
24	23	16	6	1	1	75	10	1	282	6	7	0	-1	16
24	23	16	6	1	1	75	10	1	283	6	3	742.14	49	15
24	23	16	6	1	1	75	10	1	284	6	2	12.07	49	1
24	23	16	6	1	1	75	10	1	284	6	2	256.88	49	6
24	23	16	6	1	1	75	10	1	284	6	2	760.02	49	16
24	23	16	6	1	1	75	10	1	285	6	10	10.42	49	1
24	23	16	6	1	1	75	10	1	285	6	10	210.78	49	5
24	23	16	6	1	1	75	10	1	286	6	9	279.62	49	6
24	23	16	6	1	1	75	10	1	286	6	9	507.55	49	11
24	23	16	6	1	1	75	10	1	287	6	8	266.17	49	6
24	23	16	6	1	1	75	10	1	287	6	8	507.18	49	11
24	23	16	6	1	1	75	10	1	288	16	9	468.3	49	10
24	23	16	6	1	1	75	10	1	289	6	5	633.05	49	13
24	23	16	6	1	1	75	10	1	290	6	1	0	-1	16
24	23	16	6	1	1	75	10	1	291	6	7	60.55	49	2
24	23	16	6	1	1	75	10	1	292	16	2	157.21	49	4
24	23	16	6	1	1	75	10	1	292	16	2	783.27	49	16
24	23	16	6	1	1	75	10	1	293	6	3	8.53	49	1
24	23	16	6	1	1	75	10	1	294	6	6	58.8	49	2
24	23	16	6	1	1	75	10	1	294	6	6	708.9	49	15
24	23	16	6	1	1	75	10	1	295	6	4	7.88	49	1
24	23	16	6	1	1	75	10	1	296	16	5	10.39	49	1
24	23	16	6	1	1	75	10	1	297	16	4	0	-1	16
24	23	16	6	1	1	75	10	1	298	6	2	0	-1	16
24	23	16	6	1	1	75	10	1	299	6	9	81.7	49	2
24	23	16	6	1	1	75	10	1	300	6	10	216.47	49	5
24	23	16	6	1	1	75	10	1	301	16	6	37.63	49	1
24	23	16	6	1	1	75	10	1	302	6	1	0	-1	16
24	23	16	6	1	1	75	10	1	303	6	8	63.59	49	2
24	23	16	6	1	1	75	10	1	303	6	8	309.82	49	7
24	23	16	6	1	1	75	10	1	304	16	3	275.01	49	6
24	23	16	6	1	1	75	10	1	305	6	6	784.65	49	16
24	23	16	6	1	1	75	10	1	306	16	8	11.25	49	1
24	23	16	6	1	1	75	10	1	307	6	7	766.25	49	16
24	23	16	6	1	1	75	10	1	308	6	3	10.76	49	1
24	23	16	6	1	1	75	10	1	309	16	7	107.6	49	3
24	23	16	6	1	1	75	10	1	310	16	1	0	-1	16
24	23	16	6	1	1	75	10	1	311	6	5	0	-1	16
24	23	16	6	1	1	75	10	1	312	6	4	77.92	49	2
24	23	16	6	1	1	75	10	1	312	6	4	763.45	49	16
24	23	16	6	1	1	75	10	1	313	6	7	10.87	49	1
24	23	16	6	1	1	75	10	1	314	16	9	0	-1	16
24	23	16	6	1	1	75	10	1	315	6	9	165.17	49	4
24	23	16	6	1	1	75	10	1	315	6	9	742.53	49	15
24	23	16	6	1	1	75	10	1	316	16	4	7.71	49	1
24	23	16	6	1	1	75	10	1	317	6	2	0	-1	16
24	23	16	6	1	1	75	10	1	318	6	4	107.5	49	3
24	23	16	6	1	1	75	10	1	319	16	5	34.8	49	1
24	23	16	6	1	1	75	10	1	319	16	5	257	49	6
24	23	16	6	1	1	75	10	1	320	6	5	0	-1	16
24	23	16	6	1	1	75	10	1	321	6	1	66.69	49	2
24	23	16	6	1	1	75	10	1	321	6	1	757.93	49	16
24	23	16	6	1	1	75	10	1	322	6	10	9.06	49	1
24	23	16	6	1	1	75	10	1	323	16	10	314.04	49	7
24	23	16	6	1	1	75	10	1	324	16	2	0	-1	16
24	23	16	6	1	1	75	10	1	325	6	6	85.37	49	2
24	23	16	6	1	1	75	10	1	326	6	3	28.81	49	1
24	23	16	6	1	1	75	10	1	327	6	8	307.17	49	7
24	23	16	6	1	1	75	10	1	328	6	5	157.17	49	4
24	23	16	6	1	1	75	10	1	328	6	5	758.05	49	16
24	23	16	6	1	1	75	10	1	329	6	10	9.59	49	1
24	23	16	6	1	1	75	10	1	330	6	4	372.51	49	8
24	23	16	6	1	1	75	10	1	331	6	9	177.83	49	4
24	23	16	6	1	1	75	10	1	332	6	2	110.52	49	3
24	23	16	6	1	1	75	10	1	332	6	2	785.57	49	16
24	23	16	6	1	1	75	10	1	333	6	8	8.86	49	1
24	23	16	6	1	1	75	10	1	334	6	7	316.34	49	7
24	23	16	6	1	1	75	10	1	335	6	3	0	-1	16
24	23	16	6	1	1	75	10	1	336	6	6	86.06	49	2
24	23	16	6	1	1	75	10	1	336	6	6	665.07	49	14
24	23	16	6	1	1	75	10	1	337	6	1	7.95	49	1
24	23	16	6	1	1	75	10	1	338	6	7	207.66	49	5
24	23	16	6	1	1	75	10	1	339	6	9	41.45	49	1
24	23	16	6	1	1	75	10	1	340	6	4	142.49	49	3
24	23	16	6	1	1	75	10	1	341	6	10	36.48	49	1
24	23	16	6	1	1	75	10	1	341	6	10	793.06	49	16
24	23	16	6	1	1	75	10	1	342	6	5	8.35	49	1
24	23	16	6	1	1	75	10	1	342	6	5	741.11	49	15
24	23	16	6	1	1	75	10	1	343	16	6	7.92	49	1
24	23	16	6	1	1	75	10	1	344	16	3	0	-1	16
24	23	16	6	1	1	75	10	1	345	16	8	0	-1	16
24	23	16	6	1	1	75	10	1	346	6	2	0	-1	16
24	23	16	6	1	1	75	10	1	347	16	2	43.72	49	1
24	23	16	6	1	1	75	10	1	348	6	1	107.08	49	3
24	23	16	6	1	1	75	10	1	348	6	1	743.64	49	15
24	23	16	6	1	1	75	10	1	349	6	3	8.31	49	1
24	23	16	6	1	1	75	10	1	349	6	3	740.38	49	15
24	23	16	6	1	1	75	10	1	350	6	6	7.99	49	1
24	23	16	6	1	1	75	10	1	350	6	6	709	49	15
24	23	16	6	1	1	75	10	1	351	6	8	8.42	49	1
24	23	16	6	1	1	75	10	1	352	6	2	267.46	49	6
24	23	16	6	1	1	75	10	1	353	6	9	366.82	49	8
24	23	16	6	1	1	75	10	1	353	6	9	608.09	49	13
24	23	16	6	1	1	75	10	1	354	6	10	609.57	49	13
24	23	16	6	1	1	75	10	1	355	6	7	493.99	49	10
24	23	16	6	1	1	75	10	1	356	16	9	0	-1	16
24	23	16	6	1	1	75	10	1	357	6	1	681.25	49	14
24	23	16	6	1	1	75	10	1	358	6	6	10.14	49	1
24	23	16	6	1	1	75	10	1	359	6	5	23.6	49	1
24	23	16	6	1	1	75	10	1	360	6	8	7.69	49	1
24	23	16	6	1	1	75	10	1	361	6	3	41.85	49	1
24	23	16	6	1	1	75	10	1	361	6	3	259.26	49	6
24	23	16	6	1	1	75	10	1	361	6	3	791.87	49	16
24	23	16	6	1	1	75	10	1	362	6	4	7.78	49	1
24	23	16	6	1	1	75	10	1	363	6	5	258.36	49	6
24	23	16	6	1	1	75	10	1	364	6	2	190.1	49	4
24	23	16	6	1	1	75	10	1	365	16	10	192.13	49	4
24	23	16	6	1	1	75	10	1	366	6	10	0	-1	16
24	23	16	6	1	1	75	10	1	367	6	9	167.72	49	4
24	23	16	6	1	1	75	10	1	367	6	9	407.67	49	9
24	23	16	6	1	1	75	10	1	368	6	4	175.68	49	4
24	23	16	6	1	1	75	10	1	369	6	3	70.56	49	2
24	23	16	6	1	1	75	10	1	370	6	8	60.24	49	2
24	23	16	6	1	1	75	10	1	371	6	7	232.3	49	5
24	23	16	6	1	1	75	10	1	372	6	6	0	-1	16
24	23	16	6	1	1	75	10	1	373	6	1	11.79	49	1
24	23	16	6	1	1	75	10	1	373	6	1	259.24	49	6
24	23	16	6	1	1	75	10	1	374	6	2	208.65	49	5
24	23	16	6	1	1	75	10	1	375	6	10	18.71	49	1
24	23	16	6	1	1	75	10	1	376	6	9	128.14	49	3
24	23	16	6	1	1	75	10	1	376	6	9	775.13	49	16
24	23	16	6	1	1	75	10	1	377	6	7	8.16	49	1
24	23	16	6	1	1	75	10	1	378	16	7	136.66	49	3
24	23	16	6	1	1	75	10	1	379	16	3	8.22	49	1
24	23	16	6	1	1	75	10	1	380	16	5	0	-1	16
24	23	16	6	1	1	75	10	1	381	6	5	657.6	49	14
24	23	16	6	1	1	75	10	1	382	16	6	7.66	49	1
24	23	16	6	1	1	75	10	1	383	6	8	758.23	49	16
24	23	16	6	1	1	75	10	1	384	6	1	8.12	49	1
24	23	16	6	1	1	75	10	1	384	6	1	782.21	49	16
24	23	16	6	1	1	75	10	1	385	6	6	7.93	49	1
24	23	16	6	1	1	75	10	1	386	6	3	60.47	49	2
24	23	16	6	1	1	75	10	1	386	6	3	310.29	49	7
24	23	16	6	1	1	75	10	1	387	16	8	32.35	49	1
24	23	16	6	1	1	75	10	1	388	6	4	0	-1	16
24	23	16	6	1	1	75	10	1	389	6	7	59.17	49	2
24	23	16	6	1	1	75	10	1	389	6	7	259.87	49	6
24	23	16	6	1	1	75	10	1	390	6	1	780.49	49	16
24	23	16	6	1	1	75	10	1	391	6	2	10.17	49	1
24	23	16	6	1	1	75	10	1	391	6	2	210.8	49	5
24	23	16	6	1	1	75	10	1	391	6	2	709.04	49	15
24	23	16	6	1	1	75	10	1	392	6	5	7.84	49	1
24	23	16	6	1	1	75	10	1	392	6	5	743.81	49	15
24	23	16	6	1	1	75	10	1	393	16	1	8.6	49	1
24	23	16	6	1	1	75	10	1	394	6	10	0	-1	16
24	23	16	6	1	1	75	10	1	395	16	4	15.1	49	1
24	23	16	6	1	1	75	10	1	395	16	4	258.41	49	6
24	23	16	6	1	1	75	10	1	396	6	4	739.41	49	15
24	23	16	6	1	1	75	10	1	397	6	9	8.01	49	1
24	23	16	6	1	1	75	10	1	398	6	6	158.08	49	4
24	23	16	6	1	1	75	10	1	399	6	3	23.8	49	1
24	23	16	6	1	1	75	10	1	399	6	3	260.26	49	6
24	23	16	6	1	1	75	10	1	400	6	8	38.83	49	1
24	23	16	6	1	1	75	10	1	400	6	8	257.64	49	6
24	23	16	6	1	1	75	10	1	401	16	5	27.15	49	1
24	23	16	6	1	1	75	10	1	401	16	5	259.48	49	6
24	23	16	6	1	1	75	10	1	402	6	6	671.68	49	14
24	23	16	6	1	1	75	10	1	403	16	9	11.24	49	1
24	23	16	6	1	1	75	10	1	403	16	9	674.54	49	14
24	23	16	6	1	1	75	10	1	404	6	10	10.47	49	1
24	23	16	6	1	1	75	10	1	404	6	10	712.61	49	15
24	23	16	6	1	1	75	10	1	405	6	9	10.29	49	1
24	23	16	6	1	1	75	10	1	406	16	2	157.31	49	4
24	23	16	6	1	1	75	10	1	406	16	2	357.51	49	8
24	23	16	6	1	1	75	10	1	407	16	10	0	-1	16
24	23	16	6	1	1	75	10	1	408	6	5	33.26	49	1
24	23	16	6	1	1	75	10	1	409	16	4	68.83	49	2
24	23	16	6	1	1	75	10	1	410	16	6	0	-1	16
24	23	16	6	1	1	75	10	1	411	6	7	0	-1	16
24	23	16	6	1	1	75	10	1	412	16	7	0	-1	16
24	23	16	6	1	1	75	10	1	413	6	4	0	-1	16
24	23	16	6	1	1	75	10	1	414	16	8	11.27	49	1
24	23	16	6	1	1	75	10	1	415	6	2	0	-1	16
24	23	16	6	1	1	75	10	1	416	6	1	279.73	49	6
24	23	16	6	1	1	75	10	1	417	6	8	107.29	49	3
24	23	16	6	1	1	75	10	1	417	6	8	309.95	49	7
24	23	16	6	1	1	75	10	1	418	6	3	44.24	49	1
24	23	16	6	1	1	75	10	1	418	6	3	257.94	49	6
24	23	16	6	1	1	75	10	1	419	6	2	215.4	49	5
24	23	16	6	1	1	75	10	1	420	6	10	360.03	49	8
24	23	16	6	1	1	75	10	1	421	16	3	82.34	49	2
24	23	16	6	1	1	75	10	1	421	16	3	308.2	49	7
24	23	16	6	1	1	75	10	1	422	6	9	0	-1	16
24	23	16	6	1	1	75	10	1	423	16	1	57.96	49	2
24	23	16	6	1	1	75	10	1	423	16	1	262.22	49	6
24	23	16	6	1	1	75	10	1	424	6	7	58.31	49	2
24	23	16	6	1	1	75	10	1	425	6	6	0	-1	16
24	23	16	6	1	1	75	10	1	426	16	6	0	-1	16
24	23	16	6	1	1	75	10	1	427	6	5	657.53	49	14
24	23	16	6	1	1	75	10	1	428	16	7	7.87	49	1
24	23	16	6	1	1	75	10	1	429	6	8	709.62	49	15
24	23	16	6	1	1	75	10	1	430	6	1	8.03	49	1
24	23	16	6	1	1	75	10	1	431	16	1	157.7	49	4
24	23	16	6	1	1	75	10	1	431	16	1	359.52	49	8
24	23	16	6	1	1	75	10	1	432	6	3	0	-1	16
24	23	16	6	1	1	75	10	1	433	6	4	113.18	49	3
24	23	16	6	1	1	75	10	1	434	6	6	8.15	49	1
24	23	16	6	1	1	75	10	1	434	6	6	210.16	49	5
24	23	16	6	1	1	75	10	1	435	6	1	60.77	49	2
24	23	16	6	1	1	75	10	1	435	6	1	308.39	49	7
24	23	16	6	1	1	75	10	1	436	6	4	209.38	49	5
24	23	16	6	1	1	75	10	1	436	6	4	409.43	49	9
24	23	16	6	1	1	75	10	1	437	6	10	8.96	49	1
24	23	16	6	1	1	75	10	1	438	6	5	19.73	49	1
24	23	16	6	1	1	75	10	1	438	6	5	257.35	49	6
24	23	16	6	1	1	75	10	1	439	16	10	218.73	49	5
24	23	16	6	1	1	75	10	1	439	16	10	457.54	49	10
24	23	16	6	1	1	75	10	1	440	6	7	0	-1	16
24	23	16	6	1	1	75	10	1	441	6	2	0	-1	16
24	23	16	6	1	1	75	10	1	442	6	9	16.28	49	1
24	23	16	6	1	1	75	10	1	443	6	8	91.61	49	2
24	23	16	6	1	1	75	10	1	443	6	8	306.93	49	7
24	23	16	6	1	1	75	10	1	444	6	3	177.66	49	4
24	23	16	6	1	1	75	10	1	445	6	5	219.29	49	5
24	23	16	6	1	1	75	10	1	446	6	4	119.07	49	3
24	23	16	6	1	1	75	10	1	447	6	9	64.89	49	2
24	23	16	6	1	1	75	10	1	448	6	2	70.56	49	2
24	23	16	6	1	1	75	10	1	448	6	2	309.39	49	7
24	23	16	6	1	1	75	10	1	449	6	10	88.92	49	2
24	23	16	6	1	1	75	10	1	449	6	10	309.09	49	7
24	23	16	6	1	1	75	10	1	450	6	8	140.64	49	3
