SubjectNum	Age	Gender	PressedTask	Block Type	Block Repeat Num	Response Rate	Onset	Block	Trial	ImgType	ImgNum	RT	PressedC	FrameC
29	35	9	6	4	1	75	10	1	1	6	5	0	-1	16
29	35	9	6	4	1	75	10	1	2	6	10	21.55	49	1
29	35	9	6	4	1	75	10	1	3	6	4	488.35	49	10
29	35	9	6	4	1	75	10	1	4	6	9	0	-1	16
29	35	9	6	4	1	75	10	1	5	16	7	171.71	49	4
29	35	9	6	4	1	75	10	1	6	6	2	744.69	49	15
29	35	9	6	4	1	75	10	1	7	6	3	8.34	49	1
29	35	9	6	4	1	75	10	1	7	6	3	258.05	49	6
29	35	9	6	4	1	75	10	1	8	16	9	311.84	49	7
29	35	9	6	4	1	75	10	1	8	16	9	558.83	49	12
29	35	9	6	4	1	75	10	1	9	6	8	0	-1	16
29	35	9	6	4	1	75	10	1	10	16	2	209.72	49	5
29	35	9	6	4	1	75	10	1	10	16	2	431.56	49	9
29	35	9	6	4	1	75	10	1	11	6	7	760.13	49	16
29	35	9	6	4	1	75	10	1	12	6	6	9.75	49	1
29	35	9	6	4	1	75	10	1	13	6	1	612.48	49	13
29	35	9	6	4	1	75	10	1	14	16	5	8.03	49	1
29	35	9	6	4	1	75	10	1	15	6	5	557.6	49	12
29	35	9	6	4	1	75	10	1	16	6	2	7.46	49	1
29	35	9	6	4	1	75	10	1	17	6	4	522.1	49	11
29	35	9	6	4	1	75	10	1	17	6	4	759.18	49	16
29	35	9	6	4	1	75	10	1	18	6	9	0	-1	16
29	35	9	6	4	1	75	10	1	19	6	10	257.29	49	6
29	35	9	6	4	1	75	10	1	20	16	1	0	-1	16
29	35	9	6	4	1	75	10	1	21	6	3	717.28	49	15
29	35	9	6	4	1	75	10	1	22	16	10	12.74	49	1
29	35	9	6	4	1	75	10	1	23	6	7	0	-1	16
29	35	9	6	4	1	75	10	1	24	16	4	25.39	49	1
29	35	9	6	4	1	75	10	1	25	6	8	0	-1	16
29	35	9	6	4	1	75	10	1	26	16	3	73.87	49	2
29	35	9	6	4	1	75	10	1	27	6	6	0	-1	16
29	35	9	6	4	1	75	10	1	28	6	1	112.98	49	3
29	35	9	6	4	1	75	10	1	29	6	6	440.27	49	9
29	35	9	6	4	1	75	10	1	30	6	1	0	-1	16
29	35	9	6	4	1	75	10	1	31	16	6	146.43	49	3
29	35	9	6	4	1	75	10	1	32	6	9	0	-1	16
29	35	9	6	4	1	75	10	1	33	6	8	184.9	49	4
29	35	9	6	4	1	75	10	1	34	6	10	628.62	49	13
29	35	9	6	4	1	75	10	1	35	16	8	10.86	49	1
29	35	9	6	4	1	75	10	1	36	6	7	613.36	49	13
29	35	9	6	4	1	75	10	1	37	6	4	10.12	49	1
29	35	9	6	4	1	75	10	1	38	6	2	309.01	49	7
29	35	9	6	4	1	75	10	1	38	6	2	558.47	49	12
29	35	9	6	4	1	75	10	1	38	6	2	760.12	49	16
29	35	9	6	4	1	75	10	1	39	6	5	629.65	49	13
29	35	9	6	4	1	75	10	1	40	16	7	9.72	49	1
29	35	9	6	4	1	75	10	1	41	16	4	231.33	49	5
29	35	9	6	4	1	75	10	1	41	16	4	457.28	49	10
29	35	9	6	4	1	75	10	1	41	16	4	709.56	49	15
29	35	9	6	4	1	75	10	1	42	6	3	0	-1	16
29	35	9	6	4	1	75	10	1	43	6	7	307.43	49	7
29	35	9	6	4	1	75	10	1	43	6	7	557.46	49	12
29	35	9	6	4	1	75	10	1	44	6	5	0	-1	16
29	35	9	6	4	1	75	10	1	45	6	2	135.02	49	3
29	35	9	6	4	1	75	10	1	46	6	1	433.26	49	9
29	35	9	6	4	1	75	10	1	46	6	1	660.08	49	14
29	35	9	6	4	1	75	10	1	47	6	9	0	-1	16
29	35	9	6	4	1	75	10	1	48	6	4	225.41	49	5
29	35	9	6	4	1	75	10	1	49	16	5	0	-1	16
29	35	9	6	4	1	75	10	1	50	16	1	563.89	49	12
29	35	9	6	4	1	75	10	1	51	6	10	10.54	49	1
29	35	9	6	4	1	75	10	1	52	6	6	0	-1	16
29	35	9	6	4	1	75	10	1	53	6	3	129.56	49	3
29	35	9	6	4	1	75	10	1	53	6	3	357.65	49	8
29	35	9	6	4	1	75	10	1	54	6	8	357.28	49	8
29	35	9	6	4	1	75	10	1	54	6	8	560.72	49	12
29	35	9	6	4	1	75	10	1	55	16	2	795.94	49	16
29	35	9	6	4	1	75	10	1	56	6	2	8.1	49	1
29	35	9	6	4	1	75	10	1	56	6	2	259.39	49	6
29	35	9	6	4	1	75	10	1	57	6	10	728.56	49	15
29	35	9	6	4	1	75	10	1	58	6	9	10.83	49	1
29	35	9	6	4	1	75	10	1	58	6	9	257.57	49	6
29	35	9	6	4	1	75	10	1	58	6	9	458.06	49	10
29	35	9	6	4	1	75	10	1	59	16	10	686.59	49	14
29	35	9	6	4	1	75	10	1	60	6	1	10.2	49	1
29	35	9	6	4	1	75	10	1	61	6	8	790.34	49	16
29	35	9	6	4	1	75	10	1	62	6	3	10.79	49	1
29	35	9	6	4	1	75	10	1	62	6	3	212.88	49	5
29	35	9	6	4	1	75	10	1	63	6	6	128.71	49	3
29	35	9	6	4	1	75	10	1	63	6	6	360.07	49	8
29	35	9	6	4	1	75	10	1	64	6	5	436.77	49	9
29	35	9	6	4	1	75	10	1	65	6	7	0	-1	16
29	35	9	6	4	1	75	10	1	66	6	4	257.64	49	6
29	35	9	6	4	1	75	10	1	66	6	4	459.17	49	10
29	35	9	6	4	1	75	10	1	67	6	7	0	-1	16
29	35	9	6	4	1	75	10	1	68	6	4	378.45	49	8
29	35	9	6	4	1	75	10	1	68	6	4	607.12	49	13
29	35	9	6	4	1	75	10	1	69	6	10	0	-1	16
29	35	9	6	4	1	75	10	1	70	6	2	557.83	49	12
29	35	9	6	4	1	75	10	1	70	6	2	759.45	49	16
29	35	9	6	4	1	75	10	1	71	6	1	8.45	49	1
29	35	9	6	4	1	75	10	1	72	6	9	69.54	49	2
29	35	9	6	4	1	75	10	1	72	6	9	308.64	49	7
29	35	9	6	4	1	75	10	1	73	6	5	220.76	49	5
29	35	9	6	4	1	75	10	1	73	6	5	459.88	49	10
29	35	9	6	4	1	75	10	1	74	6	6	709.58	49	15
29	35	9	6	4	1	75	10	1	75	6	3	10.26	49	1
29	35	9	6	4	1	75	10	1	76	6	8	165.31	49	4
29	35	9	6	4	1	75	10	1	77	6	5	510.74	49	11
29	35	9	6	4	1	75	10	1	77	6	5	761.59	49	16
29	35	9	6	4	1	75	10	1	78	16	9	0	-1	16
29	35	9	6	4	1	75	10	1	79	16	6	0	-1	16
29	35	9	6	4	1	75	10	1	80	16	3	0	-1	16
29	35	9	6	4	1	75	10	1	81	16	8	0	-1	16
29	35	9	6	4	1	75	10	1	82	6	4	684.02	49	14
29	35	9	6	4	1	75	10	1	83	16	7	8.93	49	1
29	35	9	6	4	1	75	10	1	83	16	7	209.94	49	5
29	35	9	6	4	1	75	10	1	84	6	10	0	-1	16
29	35	9	6	4	1	75	10	1	85	6	2	113.65	49	3
29	35	9	6	4	1	75	10	1	85	6	2	360.56	49	8
29	35	9	6	4	1	75	10	1	86	6	9	226.97	49	5
29	35	9	6	4	1	75	10	1	86	6	9	459.75	49	10
29	35	9	6	4	1	75	10	1	87	6	7	681.39	49	14
29	35	9	6	4	1	75	10	1	88	6	8	10.44	49	1
29	35	9	6	4	1	75	10	1	88	6	8	211.72	49	5
29	35	9	6	4	1	75	10	1	89	6	6	0	-1	16
29	35	9	6	4	1	75	10	1	90	6	3	25.42	49	1
29	35	9	6	4	1	75	10	1	90	6	3	259.84	49	6
29	35	9	6	4	1	75	10	1	91	6	1	316.97	49	7
29	35	9	6	4	1	75	10	1	91	6	1	557.45	49	12
29	35	9	6	4	1	75	10	1	92	6	7	686.66	49	14
29	35	9	6	4	1	75	10	1	93	16	9	10.38	49	1
29	35	9	6	4	1	75	10	1	94	6	5	624.99	49	13
29	35	9	6	4	1	75	10	1	95	6	2	7.69	49	1
29	35	9	6	4	1	75	10	1	96	6	1	122.04	49	3
29	35	9	6	4	1	75	10	1	96	6	1	357.28	49	8
29	35	9	6	4	1	75	10	1	97	6	9	234.46	49	5
29	35	9	6	4	1	75	10	1	97	6	9	457.38	49	10
29	35	9	6	4	1	75	10	1	98	16	2	491.23	49	10
29	35	9	6	4	1	75	10	1	98	16	2	709.33	49	15
29	35	9	6	4	1	75	10	1	99	6	4	0	-1	16
29	35	9	6	4	1	75	10	1	100	16	4	36.13	49	1
29	35	9	6	4	1	75	10	1	100	16	4	259.48	49	6
29	35	9	6	4	1	75	10	1	101	6	10	610.13	49	13
29	35	9	6	4	1	75	10	1	102	6	3	9.59	49	1
29	35	9	6	4	1	75	10	1	103	6	6	85.84	49	2
29	35	9	6	4	1	75	10	1	103	6	6	307.88	49	7
29	35	9	6	4	1	75	10	1	104	6	8	458.1	49	10
29	35	9	6	4	1	75	10	1	104	6	8	660.1	49	14
29	35	9	6	4	1	75	10	1	105	6	5	0	-1	16
29	35	9	6	4	1	75	10	1	106	6	9	408.24	49	9
29	35	9	6	4	1	75	10	1	106	6	9	657.3	49	14
29	35	9	6	4	1	75	10	1	107	16	10	0	-1	16
29	35	9	6	4	1	75	10	1	108	6	4	490.04	49	10
29	35	9	6	4	1	75	10	1	108	6	4	710.17	49	15
29	35	9	6	4	1	75	10	1	109	16	1	7.44	49	1
29	35	9	6	4	1	75	10	1	110	6	2	0	-1	16
29	35	9	6	4	1	75	10	1	111	6	10	67.96	49	2
29	35	9	6	4	1	75	10	1	111	6	10	310.1	49	7
29	35	9	6	4	1	75	10	1	112	6	6	212.05	49	5
29	35	9	6	4	1	75	10	1	112	6	6	460.33	49	10
29	35	9	6	4	1	75	10	1	112	6	6	727.59	49	15
29	35	9	6	4	1	75	10	1	113	16	5	709.75	49	15
29	35	9	6	4	1	75	10	1	114	6	3	10.41	49	1
29	35	9	6	4	1	75	10	1	114	6	3	260.27	49	6
29	35	9	6	4	1	75	10	1	115	6	7	661.91	49	14
29	35	9	6	4	1	75	10	1	116	16	3	9.03	49	1
29	35	9	6	4	1	75	10	1	117	16	6	781.47	49	16
29	35	9	6	4	1	75	10	1	118	16	8	8.43	49	1
29	35	9	6	4	1	75	10	1	118	16	8	259.11	49	6
29	35	9	6	4	1	75	10	1	119	6	8	0	-1	16
29	35	9	6	4	1	75	10	1	120	6	1	182.72	49	4
29	35	9	6	4	1	75	10	1	120	6	1	409.16	49	9
29	35	9	6	4	1	75	10	1	121	16	5	0	-1	16
29	35	9	6	4	1	75	10	1	122	6	5	579.42	49	12
29	35	9	6	4	1	75	10	1	123	6	2	8.13	49	1
29	35	9	6	4	1	75	10	1	124	16	4	36.7	49	1
29	35	9	6	4	1	75	10	1	124	16	4	259.18	49	6
29	35	9	6	4	1	75	10	1	124	16	4	459.78	49	10
29	35	9	6	4	1	75	10	1	125	16	9	0	-1	16
29	35	9	6	4	1	75	10	1	126	16	10	0	-1	16
29	35	9	6	4	1	75	10	1	127	6	10	740.71	49	15
29	35	9	6	4	1	75	10	1	128	16	2	9.73	49	1
29	35	9	6	4	1	75	10	1	129	16	6	0	-1	16
29	35	9	6	4	1	75	10	1	130	16	8	0	-1	16
29	35	9	6	4	1	75	10	1	131	16	7	0	-1	16
29	35	9	6	4	1	75	10	1	132	6	9	738.15	49	15
29	35	9	6	4	1	75	10	1	133	6	4	7.37	49	1
29	35	9	6	4	1	75	10	1	134	6	8	58.32	49	2
29	35	9	6	4	1	75	10	1	134	6	8	307.26	49	7
29	35	9	6	4	1	75	10	1	135	6	7	313.57	49	7
29	35	9	6	4	1	75	10	1	136	6	3	462.53	49	10
29	35	9	6	4	1	75	10	1	137	6	6	787.13	49	16
29	35	9	6	4	1	75	10	1	138	6	1	11.17	49	1
29	35	9	6	4	1	75	10	1	139	16	3	219.72	49	5
29	35	9	6	4	1	75	10	1	139	16	3	460.08	49	10
29	35	9	6	4	1	75	10	1	140	16	1	0	-1	16
29	35	9	6	4	1	75	10	1	141	16	6	0	-1	16
29	35	9	6	4	1	75	10	1	142	6	7	0	-1	16
29	35	9	6	4	1	75	10	1	143	6	2	21.46	49	1
29	35	9	6	4	1	75	10	1	143	6	2	259.39	49	6
29	35	9	6	4	1	75	10	1	144	16	10	359.1	49	8
29	35	9	6	4	1	75	10	1	144	16	10	607.17	49	13
29	35	9	6	4	1	75	10	1	145	6	10	0	-1	16
29	35	9	6	4	1	75	10	1	146	6	4	108.29	49	3
29	35	9	6	4	1	75	10	1	147	6	5	160.62	49	4
29	35	9	6	4	1	75	10	1	148	6	1	458.02	49	10
29	35	9	6	4	1	75	10	1	148	6	1	659.46	49	14
29	35	9	6	4	1	75	10	1	149	6	9	670.78	49	14
29	35	9	6	4	1	75	10	1	150	6	6	10.67	49	1
29	35	9	6	4	1	75	10	1	151	6	3	11.08	49	1
29	35	9	6	4	1	75	10	1	151	6	3	211.95	49	5
29	35	9	6	4	1	75	10	1	152	6	8	86.92	49	2
29	35	9	6	4	1	75	10	1	152	6	8	310.07	49	7
29	35	9	6	4	1	75	10	1	153	6	7	136.41	49	3
29	35	9	6	4	1	75	10	1	153	6	7	358.51	49	8
29	35	9	6	4	1	75	10	1	154	6	9	189.51	49	4
29	35	9	6	4	1	75	10	1	154	6	9	407.74	49	9
29	35	9	6	4	1	75	10	1	155	6	4	217.26	49	5
29	35	9	6	4	1	75	10	1	156	6	2	460.11	49	10
29	35	9	6	4	1	75	10	1	157	6	10	435.97	49	9
29	35	9	6	4	1	75	10	1	158	6	5	459.67	49	10
29	35	9	6	4	1	75	10	1	159	6	1	783.84	49	16
29	35	9	6	4	1	75	10	1	160	6	3	11.17	49	1
29	35	9	6	4	1	75	10	1	161	16	4	9.14	49	1
29	35	9	6	4	1	75	10	1	161	16	4	210.75	49	5
29	35	9	6	4	1	75	10	1	162	6	6	760.46	49	16
29	35	9	6	4	1	75	10	1	163	16	8	10.32	49	1
29	35	9	6	4	1	75	10	1	163	16	8	211.28	49	5
29	35	9	6	4	1	75	10	1	164	6	8	762.49	49	16
29	35	9	6	4	1	75	10	1	165	6	6	10.32	49	1
29	35	9	6	4	1	75	10	1	166	16	7	58.87	49	2
29	35	9	6	4	1	75	10	1	166	16	7	260.97	49	6
29	35	9	6	4	1	75	10	1	167	6	4	0	-1	16
29	35	9	6	4	1	75	10	1	168	6	5	111.35	49	3
29	35	9	6	4	1	75	10	1	169	6	10	33.2	49	1
29	35	9	6	4	1	75	10	1	169	6	10	257.16	49	6
29	35	9	6	4	1	75	10	1	170	6	9	172.59	49	4
29	35	9	6	4	1	75	10	1	171	6	7	68.07	49	2
29	35	9	6	4	1	75	10	1	172	16	5	57.34	49	2
29	35	9	6	4	1	75	10	1	172	16	5	259.54	49	6
29	35	9	6	4	1	75	10	1	173	6	2	0	-1	16
29	35	9	6	4	1	75	10	1	174	16	2	283.78	49	6
29	35	9	6	4	1	75	10	1	175	6	1	728.65	49	15
29	35	9	6	4	1	75	10	1	176	6	8	10.26	49	1
29	35	9	6	4	1	75	10	1	177	6	3	160.04	49	4
29	35	9	6	4	1	75	10	1	177	6	3	360.7	49	8
29	35	9	6	4	1	75	10	1	178	6	5	210.27	49	5
29	35	9	6	4	1	75	10	1	178	6	5	410.95	49	9
29	35	9	6	4	1	75	10	1	179	6	4	359.55	49	8
29	35	9	6	4	1	75	10	1	179	6	4	608.41	49	13
29	35	9	6	4	1	75	10	1	180	6	2	537.25	49	11
29	35	9	6	4	1	75	10	1	180	6	2	758.05	49	16
29	35	9	6	4	1	75	10	1	181	6	10	7.53	49	1
29	35	9	6	4	1	75	10	1	182	6	9	132.84	49	3
29	35	9	6	4	1	75	10	1	182	6	9	357.36	49	8
29	35	9	6	4	1	75	10	1	183	6	6	295.66	49	6
29	35	9	6	4	1	75	10	1	183	6	6	508.93	49	11
29	35	9	6	4	1	75	10	1	184	16	9	479.59	49	10
29	35	9	6	4	1	75	10	1	184	16	9	707.14	49	15
29	35	9	6	4	1	75	10	1	185	16	1	0	-1	16
29	35	9	6	4	1	75	10	1	186	6	8	0	-1	16
29	35	9	6	4	1	75	10	1	187	6	7	123.61	49	3
29	35	9	6	4	1	75	10	1	188	6	3	131.17	49	3
29	35	9	6	4	1	75	10	1	188	6	3	360.37	49	8
29	35	9	6	4	1	75	10	1	189	6	1	219.73	49	5
29	35	9	6	4	1	75	10	1	190	6	6	261.99	49	6
29	35	9	6	4	1	75	10	1	191	16	3	411.96	49	9
29	35	9	6	4	1	75	10	1	192	6	4	0	-1	16
29	35	9	6	4	1	75	10	1	193	6	1	128.33	49	3
29	35	9	6	4	1	75	10	1	194	6	2	36.92	49	1
29	35	9	6	4	1	75	10	1	195	16	6	57.85	49	2
29	35	9	6	4	1	75	10	1	195	16	6	260.33	49	6
29	35	9	6	4	1	75	10	1	196	6	5	665.69	49	14
29	35	9	6	4	1	75	10	1	197	6	9	7.69	49	1
29	35	9	6	4	1	75	10	1	197	6	9	711.96	49	15
29	35	9	6	4	1	75	10	1	198	16	8	7.59	49	1
29	35	9	6	4	1	75	10	1	199	16	10	0	-1	16
29	35	9	6	4	1	75	10	1	200	6	10	0	-1	16
29	35	9	6	4	1	75	10	1	201	6	7	259.71	49	6
29	35	9	6	4	1	75	10	1	201	6	7	460.33	49	10
29	35	9	6	4	1	75	10	1	202	6	8	222.38	49	5
29	35	9	6	4	1	75	10	1	202	6	8	460.01	49	10
29	35	9	6	4	1	75	10	1	203	16	2	310.14	49	7
29	35	9	6	4	1	75	10	1	203	16	2	510.57	49	11
29	35	9	6	4	1	75	10	1	204	6	3	382.96	49	8
29	35	9	6	4	1	75	10	1	204	6	3	610.49	49	13
29	35	9	6	4	1	75	10	1	205	16	7	369.75	49	8
29	35	9	6	4	1	75	10	1	205	16	7	611.03	49	13
29	35	9	6	4	1	75	10	1	206	6	7	0	-1	16
29	35	9	6	4	1	75	10	1	207	6	1	80.15	49	2
29	35	9	6	4	1	75	10	1	207	6	1	307.97	49	7
29	35	9	6	4	1	75	10	1	208	6	5	272.27	49	6
29	35	9	6	4	1	75	10	1	209	16	1	484.03	49	10
29	35	9	6	4	1	75	10	1	209	16	1	707.26	49	15
29	35	9	6	4	1	75	10	1	210	6	10	0	-1	16
29	35	9	6	4	1	75	10	1	211	6	4	230.82	49	5
29	35	9	6	4	1	75	10	1	212	16	4	0	-1	16
29	35	9	6	4	1	75	10	1	213	6	2	59.51	49	2
29	35	9	6	4	1	75	10	1	213	6	2	308.4	49	7
29	35	9	6	4	1	75	10	1	214	6	9	0	-1	16
29	35	9	6	4	1	75	10	1	215	16	5	10.59	49	1
29	35	9	6	4	1	75	10	1	216	6	3	0	-1	16
29	35	9	6	4	1	75	10	1	217	6	6	17.11	49	1
29	35	9	6	4	1	75	10	1	218	6	8	22.37	49	1
29	35	9	6	4	1	75	10	1	219	6	6	430.87	49	9
29	35	9	6	4	1	75	10	1	220	6	4	762.09	49	16
29	35	9	6	4	1	75	10	1	221	16	9	7.74	49	1
29	35	9	6	4	1	75	10	1	222	6	9	731.49	49	15
29	35	9	6	4	1	75	10	1	223	6	10	11.3	49	1
29	35	9	6	4	1	75	10	1	224	6	1	235.64	49	5
29	35	9	6	4	1	75	10	1	225	16	3	272.86	49	6
29	35	9	6	4	1	75	10	1	226	6	2	0	-1	16
29	35	9	6	4	1	75	10	1	227	6	7	220	49	5
29	35	9	6	4	1	75	10	1	228	6	5	0	-1	16
29	35	9	6	4	1	75	10	1	229	6	8	0	-1	16
29	35	9	6	4	1	75	10	1	230	6	3	283.42	49	6
29	35	9	6	4	1	75	10	1	231	6	6	307	49	7
29	35	9	6	4	1	75	10	1	232	16	6	0	-1	16
29	35	9	6	4	1	75	10	1	233	16	7	0	-1	16
29	35	9	6	4	1	75	10	1	234	6	5	613.88	49	13
29	35	9	6	4	1	75	10	1	235	6	7	10.65	49	1
29	35	9	6	4	1	75	10	1	236	16	8	68.7	49	2
29	35	9	6	4	1	75	10	1	237	6	1	190.13	49	4
29	35	9	6	4	1	75	10	1	237	6	1	412.01	49	9
29	35	9	6	4	1	75	10	1	237	6	1	612.08	49	13
29	35	9	6	4	1	75	10	1	238	6	2	0	-1	16
29	35	9	6	4	1	75	10	1	239	6	8	58.4	49	2
29	35	9	6	4	1	75	10	1	240	6	4	557.42	49	12
29	35	9	6	4	1	75	10	1	241	6	9	0	-1	16
29	35	9	6	4	1	75	10	1	242	6	10	60.23	49	2
29	35	9	6	4	1	75	10	1	243	6	3	312.98	49	7
29	35	9	6	4	1	75	10	1	244	16	5	407.69	49	9
29	35	9	6	4	1	75	10	1	245	6	7	0	-1	16
29	35	9	6	4	1	75	10	1	246	6	10	287.89	49	6
29	35	9	6	4	1	75	10	1	247	6	4	481.97	49	10
29	35	9	6	4	1	75	10	1	247	6	4	708.01	49	15
29	35	9	6	4	1	75	10	1	248	6	2	0	-1	16
29	35	9	6	4	1	75	10	1	249	6	5	340.81	49	7
29	35	9	6	4	1	75	10	1	249	6	5	560.11	49	12
29	35	9	6	4	1	75	10	1	250	16	2	460.17	49	10
29	35	9	6	4	1	75	10	1	250	16	2	662.62	49	14
29	35	9	6	4	1	75	10	1	251	16	1	0	-1	16
29	35	9	6	4	1	75	10	1	252	6	1	0	-1	16
29	35	9	6	4	1	75	10	1	253	16	4	67.84	49	2
29	35	9	6	4	1	75	10	1	253	16	4	309.61	49	7
29	35	9	6	4	1	75	10	1	254	6	9	644.11	49	13
29	35	9	6	4	1	75	10	1	255	6	6	7.64	49	1
29	35	9	6	4	1	75	10	1	256	6	3	180.55	49	4
29	35	9	6	4	1	75	10	1	256	6	3	407.26	49	9
29	35	9	6	4	1	75	10	1	257	6	8	233.37	49	5
29	35	9	6	4	1	75	10	1	257	6	8	459.97	49	10
29	35	9	6	4	1	75	10	1	258	6	6	409.91	49	9
29	35	9	6	4	1	75	10	1	259	6	2	0	-1	16
29	35	9	6	4	1	75	10	1	260	6	7	11.31	49	1
29	35	9	6	4	1	75	10	1	260	6	7	211.46	49	5
29	35	9	6	4	1	75	10	1	261	16	9	181.64	49	4
29	35	9	6	4	1	75	10	1	261	16	9	409.72	49	9
29	35	9	6	4	1	75	10	1	262	6	8	0	-1	16
29	35	9	6	4	1	75	10	1	263	6	5	10.68	49	1
29	35	9	6	4	1	75	10	1	263	6	5	211.9	49	5
29	35	9	6	4	1	75	10	1	264	6	9	112.03	49	3
29	35	9	6	4	1	75	10	1	265	16	10	311.42	49	7
29	35	9	6	4	1	75	10	1	266	6	1	0	-1	16
29	35	9	6	4	1	75	10	1	267	6	4	36.96	49	1
29	35	9	6	4	1	75	10	1	267	6	4	259.8	49	6
29	35	9	6	4	1	75	10	1	268	6	10	41.24	49	1
29	35	9	6	4	1	75	10	1	268	6	10	257.53	49	6
29	35	9	6	4	1	75	10	1	269	16	3	69.65	49	2
29	35	9	6	4	1	75	10	1	269	16	3	307.21	49	7
29	35	9	6	4	1	75	10	1	270	6	3	627.17	49	13
29	35	9	6	4	1	75	10	1	271	16	7	8.59	49	1
29	35	9	6	4	1	75	10	1	272	6	6	658.81	49	14
29	35	9	6	4	1	75	10	1	273	16	1	10.69	49	1
29	35	9	6	4	1	75	10	1	273	16	1	760.24	49	16
29	35	9	6	4	1	75	10	1	274	6	8	10.55	49	1
29	35	9	6	4	1	75	10	1	274	6	8	259.69	49	6
29	35	9	6	4	1	75	10	1	274	6	8	459.92	49	10
29	35	9	6	4	1	75	10	1	275	6	4	709.96	49	15
29	35	9	6	4	1	75	10	1	276	16	10	10.55	49	1
29	35	9	6	4	1	75	10	1	277	6	10	480.94	49	10
29	35	9	6	4	1	75	10	1	277	6	10	707.96	49	15
29	35	9	6	4	1	75	10	1	278	6	2	8.25	49	1
29	35	9	6	4	1	75	10	1	279	6	9	90.64	49	2
29	35	9	6	4	1	75	10	1	279	6	9	307.5	49	7
29	35	9	6	4	1	75	10	1	280	6	1	175.59	49	4
29	35	9	6	4	1	75	10	1	280	6	1	407.32	49	9
29	35	9	6	4	1	75	10	1	281	6	5	189.7	49	4
29	35	9	6	4	1	75	10	1	281	6	5	407.28	49	9
29	35	9	6	4	1	75	10	1	282	6	7	464.81	49	10
29	35	9	6	4	1	75	10	1	282	6	7	707.29	49	15
29	35	9	6	4	1	75	10	1	283	6	3	641.91	49	13
29	35	9	6	4	1	75	10	1	284	6	2	8.79	49	1
29	35	9	6	4	1	75	10	1	285	6	10	29.49	49	1
29	35	9	6	4	1	75	10	1	286	6	9	219.77	49	5
29	35	9	6	4	1	75	10	1	287	6	8	241.15	49	5
29	35	9	6	4	1	75	10	1	287	6	8	461.92	49	10
29	35	9	6	4	1	75	10	1	288	16	9	259.88	49	6
29	35	9	6	4	1	75	10	1	288	16	9	460.12	49	10
29	35	9	6	4	1	75	10	1	289	6	5	661.05	49	14
29	35	9	6	4	1	75	10	1	290	6	1	8.73	49	1
29	35	9	6	4	1	75	10	1	290	6	1	765.13	49	16
29	35	9	6	4	1	75	10	1	291	6	7	7.85	49	1
29	35	9	6	4	1	75	10	1	291	6	7	672.5	49	14
29	35	9	6	4	1	75	10	1	292	16	2	10.43	49	1
29	35	9	6	4	1	75	10	1	293	6	3	793.16	49	16
29	35	9	6	4	1	75	10	1	294	6	6	7.97	49	1
29	35	9	6	4	1	75	10	1	294	6	6	209.58	49	5
29	35	9	6	4	1	75	10	1	294	6	6	757.61	49	16
29	35	9	6	4	1	75	10	1	295	6	4	8.22	49	1
29	35	9	6	4	1	75	10	1	296	16	5	119.27	49	3
29	35	9	6	4	1	75	10	1	297	16	4	584.71	49	12
29	35	9	6	4	1	75	10	1	298	6	2	10.88	49	1
29	35	9	6	4	1	75	10	1	299	6	9	30.06	49	1
29	35	9	6	4	1	75	10	1	299	6	9	259.55	49	6
29	35	9	6	4	1	75	10	1	300	6	10	414.91	49	9
29	35	9	6	4	1	75	10	1	300	6	10	661.24	49	14
29	35	9	6	4	1	75	10	1	301	16	6	765.99	49	16
29	35	9	6	4	1	75	10	1	302	6	1	9.18	49	1
29	35	9	6	4	1	75	10	1	302	6	1	260.76	49	6
29	35	9	6	4	1	75	10	1	302	6	1	524.1	49	11
29	35	9	6	4	1	75	10	1	302	6	1	760.64	49	16
29	35	9	6	4	1	75	10	1	303	6	8	10.25	49	1
29	35	9	6	4	1	75	10	1	303	6	8	768.81	49	16
29	35	9	6	4	1	75	10	1	304	16	3	8.1	49	1
29	35	9	6	4	1	75	10	1	305	6	6	767.64	49	16
29	35	9	6	4	1	75	10	1	306	16	8	10.59	49	1
29	35	9	6	4	1	75	10	1	306	16	8	261.42	49	6
29	35	9	6	4	1	75	10	1	307	6	7	81.02	49	2
29	35	9	6	4	1	75	10	1	307	6	7	309.68	49	7
29	35	9	6	4	1	75	10	1	307	6	7	518.12	49	11
29	35	9	6	4	1	75	10	1	307	6	7	761.08	49	16
29	35	9	6	4	1	75	10	1	308	6	3	0	-1	16
29	35	9	6	4	1	75	10	1	309	16	7	25.12	49	1
29	35	9	6	4	1	75	10	1	309	16	7	257.57	49	6
29	35	9	6	4	1	75	10	1	310	16	1	0	-1	16
29	35	9	6	4	1	75	10	1	311	6	5	688.32	49	14
29	35	9	6	4	1	75	10	1	312	6	4	10.2	49	1
29	35	9	6	4	1	75	10	1	313	6	7	60.34	49	2
29	35	9	6	4	1	75	10	1	313	6	7	309.73	49	7
29	35	9	6	4	1	75	10	1	314	16	9	214.78	49	5
29	35	9	6	4	1	75	10	1	314	16	9	462.31	49	10
29	35	9	6	4	1	75	10	1	315	6	9	487.03	49	10
29	35	9	6	4	1	75	10	1	315	6	9	708.42	49	15
29	35	9	6	4	1	75	10	1	316	16	4	10.94	49	1
29	35	9	6	4	1	75	10	1	317	6	2	641.79	49	13
29	35	9	6	4	1	75	10	1	318	6	4	9.41	49	1
29	35	9	6	4	1	75	10	1	318	6	4	738.25	49	15
29	35	9	6	4	1	75	10	1	319	16	5	7.88	49	1
29	35	9	6	4	1	75	10	1	319	16	5	209.29	49	5
29	35	9	6	4	1	75	10	1	320	6	5	623.89	49	13
29	35	9	6	4	1	75	10	1	321	6	1	10.5	49	1
29	35	9	6	4	1	75	10	1	321	6	1	724.07	49	15
29	35	9	6	4	1	75	10	1	322	6	10	8.86	49	1
29	35	9	6	4	1	75	10	1	322	6	10	210.1	49	5
29	35	9	6	4	1	75	10	1	322	6	10	710.72	49	15
29	35	9	6	4	1	75	10	1	323	16	10	8.52	49	1
29	35	9	6	4	1	75	10	1	324	16	2	609.86	49	13
29	35	9	6	4	1	75	10	1	325	6	6	10.62	49	1
29	35	9	6	4	1	75	10	1	325	6	6	212.16	49	5
29	35	9	6	4	1	75	10	1	325	6	6	462.17	49	10
29	35	9	6	4	1	75	10	1	326	6	3	634.92	49	13
29	35	9	6	4	1	75	10	1	327	6	8	13.25	49	1
29	35	9	6	4	1	75	10	1	328	6	5	258.51	49	6
29	35	9	6	4	1	75	10	1	328	6	5	459.57	49	10
29	35	9	6	4	1	75	10	1	329	6	10	666.34	49	14
29	35	9	6	4	1	75	10	1	330	6	4	10.26	49	1
29	35	9	6	4	1	75	10	1	331	6	9	210.01	49	5
29	35	9	6	4	1	75	10	1	331	6	9	459.79	49	10
29	35	9	6	4	1	75	10	1	332	6	2	492.04	49	10
29	35	9	6	4	1	75	10	1	332	6	2	707.3	49	15
29	35	9	6	4	1	75	10	1	333	6	8	0	-1	16
29	35	9	6	4	1	75	10	1	334	6	7	72.01	49	2
29	35	9	6	4	1	75	10	1	334	6	7	306.94	49	7
29	35	9	6	4	1	75	10	1	335	6	3	231.34	49	5
29	35	9	6	4	1	75	10	1	335	6	3	460.61	49	10
29	35	9	6	4	1	75	10	1	336	6	6	736.94	49	15
29	35	9	6	4	1	75	10	1	337	6	1	10.21	49	1
29	35	9	6	4	1	75	10	1	338	6	7	110.71	49	3
29	35	9	6	4	1	75	10	1	338	6	7	311.3	49	7
29	35	9	6	4	1	75	10	1	338	6	7	560.16	49	12
29	35	9	6	4	1	75	10	1	339	6	9	162.29	49	4
29	35	9	6	4	1	75	10	1	340	6	4	84.98	49	2
29	35	9	6	4	1	75	10	1	341	6	10	60.54	49	2
29	35	9	6	4	1	75	10	1	342	6	5	208.39	49	5
29	35	9	6	4	1	75	10	1	343	16	6	184.48	49	4
29	35	9	6	4	1	75	10	1	344	16	3	0	-1	16
29	35	9	6	4	1	75	10	1	345	16	8	0	-1	16
29	35	9	6	4	1	75	10	1	346	6	2	766.41	49	16
29	35	9	6	4	1	75	10	1	347	16	2	8.08	49	1
29	35	9	6	4	1	75	10	1	348	6	1	789.27	49	16
29	35	9	6	4	1	75	10	1	349	6	3	8.11	49	1
29	35	9	6	4	1	75	10	1	350	6	6	10.68	49	1
29	35	9	6	4	1	75	10	1	350	6	6	259.74	49	6
29	35	9	6	4	1	75	10	1	351	6	8	59.9	49	2
29	35	9	6	4	1	75	10	1	351	6	8	309.86	49	7
29	35	9	6	4	1	75	10	1	351	6	8	510.61	49	11
29	35	9	6	4	1	75	10	1	352	6	2	332.94	49	7
29	35	9	6	4	1	75	10	1	352	6	2	559.98	49	12
29	35	9	6	4	1	75	10	1	353	6	9	259.99	49	6
29	35	9	6	4	1	75	10	1	353	6	9	460.46	49	10
29	35	9	6	4	1	75	10	1	354	6	10	308.27	49	7
29	35	9	6	4	1	75	10	1	354	6	10	508.66	49	11
29	35	9	6	4	1	75	10	1	355	6	7	537.18	49	11
29	35	9	6	4	1	75	10	1	355	6	7	757.44	49	16
29	35	9	6	4	1	75	10	1	356	16	9	7.97	49	1
29	35	9	6	4	1	75	10	1	356	16	9	208.18	49	5
29	35	9	6	4	1	75	10	1	357	6	1	637	49	13
29	35	9	6	4	1	75	10	1	358	6	6	7.52	49	1
29	35	9	6	4	1	75	10	1	358	6	6	789.02	49	16
29	35	9	6	4	1	75	10	1	359	6	5	7.97	49	1
29	35	9	6	4	1	75	10	1	360	6	8	65.46	49	2
29	35	9	6	4	1	75	10	1	360	6	8	712.73	49	15
29	35	9	6	4	1	75	10	1	361	6	3	8.78	49	1
29	35	9	6	4	1	75	10	1	361	6	3	717.95	49	15
29	35	9	6	4	1	75	10	1	362	6	4	7.87	49	1
29	35	9	6	4	1	75	10	1	362	6	4	716.31	49	15
29	35	9	6	4	1	75	10	1	363	6	5	12.5	49	1
29	35	9	6	4	1	75	10	1	363	6	5	738.36	49	15
29	35	9	6	4	1	75	10	1	364	6	2	10.25	49	1
29	35	9	6	4	1	75	10	1	364	6	2	210.33	49	5
29	35	9	6	4	1	75	10	1	365	16	10	78.37	49	2
29	35	9	6	4	1	75	10	1	365	16	10	312.13	49	7
29	35	9	6	4	1	75	10	1	366	6	10	0	-1	16
29	35	9	6	4	1	75	10	1	367	6	9	408.47	49	9
29	35	9	6	4	1	75	10	1	367	6	9	610.23	49	13
29	35	9	6	4	1	75	10	1	368	6	4	8.4	49	1
29	35	9	6	4	1	75	10	1	368	6	4	208.53	49	5
29	35	9	6	4	1	75	10	1	368	6	4	645.54	49	13
29	35	9	6	4	1	75	10	1	369	6	3	7.24	49	1
29	35	9	6	4	1	75	10	1	370	6	8	110.22	49	3
29	35	9	6	4	1	75	10	1	370	6	8	360.1	49	8
29	35	9	6	4	1	75	10	1	371	6	7	222.95	49	5
29	35	9	6	4	1	75	10	1	371	6	7	457.62	49	10
29	35	9	6	4	1	75	10	1	372	6	6	162.25	49	4
29	35	9	6	4	1	75	10	1	372	6	6	459.6	49	10
29	35	9	6	4	1	75	10	1	373	6	1	236.64	49	5
29	35	9	6	4	1	75	10	1	373	6	1	456.94	49	10
29	35	9	6	4	1	75	10	1	374	6	2	294.78	49	6
29	35	9	6	4	1	75	10	1	375	6	10	521.85	49	11
29	35	9	6	4	1	75	10	1	375	6	10	760.7	49	16
29	35	9	6	4	1	75	10	1	376	6	9	0	-1	16
29	35	9	6	4	1	75	10	1	377	6	7	62.67	49	2
29	35	9	6	4	1	75	10	1	378	16	7	209.6	49	5
29	35	9	6	4	1	75	10	1	378	16	7	412.57	49	9
29	35	9	6	4	1	75	10	1	379	16	3	0	-1	16
29	35	9	6	4	1	75	10	1	380	16	5	660.77	49	14
29	35	9	6	4	1	75	10	1	381	6	5	7.98	49	1
29	35	9	6	4	1	75	10	1	381	6	5	259.65	49	6
29	35	9	6	4	1	75	10	1	381	6	5	459.83	49	10
29	35	9	6	4	1	75	10	1	382	16	6	228.5	49	5
29	35	9	6	4	1	75	10	1	382	16	6	443.16	49	9
29	35	9	6	4	1	75	10	1	383	6	8	0	-1	16
29	35	9	6	4	1	75	10	1	384	6	1	89.15	49	2
29	35	9	6	4	1	75	10	1	384	6	1	310.28	49	7
29	35	9	6	4	1	75	10	1	384	6	1	739	49	15
29	35	9	6	4	1	75	10	1	385	6	6	38.11	49	1
29	35	9	6	4	1	75	10	1	386	6	3	8.97	49	1
29	35	9	6	4	1	75	10	1	386	6	3	209.5	49	5
29	35	9	6	4	1	75	10	1	386	6	3	759.56	49	16
29	35	9	6	4	1	75	10	1	387	16	8	8.02	49	1
29	35	9	6	4	1	75	10	1	388	6	4	0	-1	16
29	35	9	6	4	1	75	10	1	389	6	7	25.54	49	1
29	35	9	6	4	1	75	10	1	390	6	1	130.62	49	3
29	35	9	6	4	1	75	10	1	391	6	2	60.23	49	2
29	35	9	6	4	1	75	10	1	392	6	5	126.12	49	3
29	35	9	6	4	1	75	10	1	392	6	5	358.36	49	8
29	35	9	6	4	1	75	10	1	393	16	1	92.72	49	2
29	35	9	6	4	1	75	10	1	393	16	1	307.84	49	7
29	35	9	6	4	1	75	10	1	394	6	10	0	-1	16
29	35	9	6	4	1	75	10	1	395	16	4	59.53	49	2
29	35	9	6	4	1	75	10	1	395	16	4	309.27	49	7
29	35	9	6	4	1	75	10	1	396	6	4	607.13	49	13
29	35	9	6	4	1	75	10	1	397	6	9	8.93	49	1
29	35	9	6	4	1	75	10	1	398	6	6	266.06	49	6
29	35	9	6	4	1	75	10	1	398	6	6	507.34	49	11
29	35	9	6	4	1	75	10	1	399	6	3	0	-1	16
29	35	9	6	4	1	75	10	1	400	6	8	175.82	49	4
29	35	9	6	4	1	75	10	1	400	6	8	407.51	49	9
29	35	9	6	4	1	75	10	1	401	16	5	260.26	49	6
29	35	9	6	4	1	75	10	1	401	16	5	462.77	49	10
29	35	9	6	4	1	75	10	1	402	6	6	0	-1	16
29	35	9	6	4	1	75	10	1	403	16	9	59.83	49	2
29	35	9	6	4	1	75	10	1	404	6	10	330.94	49	7
29	35	9	6	4	1	75	10	1	404	6	10	560.87	49	12
29	35	9	6	4	1	75	10	1	405	6	9	19.08	49	1
29	35	9	6	4	1	75	10	1	406	16	2	121.62	49	3
29	35	9	6	4	1	75	10	1	406	16	2	357.1	49	8
29	35	9	6	4	1	75	10	1	407	16	10	0	-1	16
29	35	9	6	4	1	75	10	1	408	6	5	0	-1	16
29	35	9	6	4	1	75	10	1	409	16	4	0	-1	16
29	35	9	6	4	1	75	10	1	410	16	6	0	-1	16
29	35	9	6	4	1	75	10	1	411	6	7	0	-1	16
29	35	9	6	4	1	75	10	1	412	16	7	207.64	49	5
29	35	9	6	4	1	75	10	1	412	16	7	409.63	49	9
29	35	9	6	4	1	75	10	1	412	16	7	657.73	49	14
29	35	9	6	4	1	75	10	1	413	6	4	730.99	49	15
29	35	9	6	4	1	75	10	1	414	16	8	10.08	49	1
29	35	9	6	4	1	75	10	1	414	16	8	210.09	49	5
29	35	9	6	4	1	75	10	1	415	6	2	0	-1	16
29	35	9	6	4	1	75	10	1	416	6	1	16.03	49	1
29	35	9	6	4	1	75	10	1	416	6	1	262.63	49	6
29	35	9	6	4	1	75	10	1	416	6	1	786.98	49	16
29	35	9	6	4	1	75	10	1	417	6	8	11.91	49	1
29	35	9	6	4	1	75	10	1	417	6	8	261.54	49	6
29	35	9	6	4	1	75	10	1	418	6	3	108.58	49	3
29	35	9	6	4	1	75	10	1	418	6	3	358.51	49	8
29	35	9	6	4	1	75	10	1	419	6	2	257.67	49	6
29	35	9	6	4	1	75	10	1	419	6	2	507.23	49	11
29	35	9	6	4	1	75	10	1	419	6	2	707.53	49	15
29	35	9	6	4	1	75	10	1	420	6	10	9.98	49	1
29	35	9	6	4	1	75	10	1	420	6	10	512.9	49	11
29	35	9	6	4	1	75	10	1	421	16	3	757.55	49	16
29	35	9	6	4	1	75	10	1	422	6	9	7.56	49	1
29	35	9	6	4	1	75	10	1	422	6	9	209.88	49	5
29	35	9	6	4	1	75	10	1	423	16	1	161.97	49	4
29	35	9	6	4	1	75	10	1	424	6	7	0	-1	16
29	35	9	6	4	1	75	10	1	425	6	6	259.36	49	6
29	35	9	6	4	1	75	10	1	425	6	6	459.81	49	10
29	35	9	6	4	1	75	10	1	426	16	6	227.97	49	5
29	35	9	6	4	1	75	10	1	427	6	5	784.11	49	16
29	35	9	6	4	1	75	10	1	428	16	7	10.47	49	1
29	35	9	6	4	1	75	10	1	429	6	8	0	-1	16
29	35	9	6	4	1	75	10	1	430	6	1	12.89	49	1
29	35	9	6	4	1	75	10	1	431	16	1	232.54	49	5
29	35	9	6	4	1	75	10	1	431	16	1	458.74	49	10
29	35	9	6	4	1	75	10	1	432	6	3	0	-1	16
29	35	9	6	4	1	75	10	1	433	6	4	309.97	49	7
29	35	9	6	4	1	75	10	1	434	6	6	434.85	49	9
29	35	9	6	4	1	75	10	1	434	6	6	659.73	49	14
29	35	9	6	4	1	75	10	1	435	6	1	0	-1	16
29	35	9	6	4	1	75	10	1	436	6	4	73.32	49	2
29	35	9	6	4	1	75	10	1	437	6	10	72.39	49	2
29	35	9	6	4	1	75	10	1	438	6	5	445.53	49	9
29	35	9	6	4	1	75	10	1	438	6	5	660.78	49	14
29	35	9	6	4	1	75	10	1	439	16	10	0	-1	16
29	35	9	6	4	1	75	10	1	440	6	7	759.8	49	16
29	35	9	6	4	1	75	10	1	441	6	2	12.77	49	1
29	35	9	6	4	1	75	10	1	441	6	2	260.88	49	6
29	35	9	6	4	1	75	10	1	442	6	9	122.17	49	3
29	35	9	6	4	1	75	10	1	443	6	8	228.19	49	5
29	35	9	6	4	1	75	10	1	443	6	8	460.64	49	10
29	35	9	6	4	1	75	10	1	444	6	3	318.05	49	7
29	35	9	6	4	1	75	10	1	444	6	3	560.75	49	12
29	35	9	6	4	1	75	10	1	445	6	5	421.35	49	9
29	35	9	6	4	1	75	10	1	445	6	5	658.16	49	14
29	35	9	6	4	1	75	10	1	446	6	4	722.46	49	15
29	35	9	6	4	1	75	10	1	447	6	9	13.45	49	1
29	35	9	6	4	1	75	10	1	448	6	2	14.16	49	1
29	35	9	6	4	1	75	10	1	449	6	10	188.65	49	4
29	35	9	6	4	1	75	10	1	449	6	10	407.27	49	9
29	35	9	6	4	1	75	10	1	450	6	8	395.29	49	8
