SubjectNum	Age	Gender	PressedTask	Block Type	Block Repeat Num	Response Rate	Onset	Block	Trial	ImgType	ImgNum	RT	PressedC	FrameC
29	35	9	6	4	1	75	10	1	1	6	5	0	-1	16
29	35	9	6	4	1	75	10	1	2	6	10	67.01	49	2
29	35	9	6	4	1	75	10	1	2	6	10	484.77	49	10
29	35	9	6	4	1	75	10	1	2	6	10	710.51	49	15
29	35	9	6	4	1	75	10	1	3	6	4	430.24	49	9
29	35	9	6	4	1	75	10	1	4	6	9	260.26	49	6
29	35	9	6	4	1	75	10	1	4	6	9	792.75	49	16
29	35	9	6	4	1	75	10	1	5	16	7	10.33	49	1
29	35	9	6	4	1	75	10	1	5	16	7	212.01	49	5
29	35	9	6	4	1	75	10	1	6	6	2	715.8	49	15
29	35	9	6	4	1	75	10	1	7	6	3	8.62	49	1
29	35	9	6	4	1	75	10	1	7	6	3	708.03	49	15
29	35	9	6	4	1	75	10	1	8	16	9	31.77	49	1
29	35	9	6	4	1	75	10	1	8	16	9	577.68	49	12
29	35	9	6	4	1	75	10	1	9	6	8	9.75	49	1
29	35	9	6	4	1	75	10	1	9	6	8	630.36	49	13
29	35	9	6	4	1	75	10	1	10	16	2	7.78	49	1
29	35	9	6	4	1	75	10	1	10	16	2	712.87	49	15
29	35	9	6	4	1	75	10	1	11	6	7	7.6	49	1
29	35	9	6	4	1	75	10	1	11	6	7	657.13	49	14
29	35	9	6	4	1	75	10	1	12	6	6	7.4	49	1
29	35	9	6	4	1	75	10	1	12	6	6	695.88	49	14
29	35	9	6	4	1	75	10	1	13	6	1	26.98	49	1
29	35	9	6	4	1	75	10	1	13	6	1	727.1	49	15
29	35	9	6	4	1	75	10	1	14	16	5	10.45	49	1
29	35	9	6	4	1	75	10	1	15	6	5	610.05	49	13
29	35	9	6	4	1	75	10	1	16	6	2	717.38	49	15
29	35	9	6	4	1	75	10	1	17	6	4	11.1	49	1
29	35	9	6	4	1	75	10	1	17	6	4	717.11	49	15
29	35	9	6	4	1	75	10	1	18	6	9	22.06	49	1
29	35	9	6	4	1	75	10	1	18	6	9	708.98	49	15
29	35	9	6	4	1	75	10	1	19	6	10	9.24	49	1
29	35	9	6	4	1	75	10	1	20	16	1	240.42	49	5
29	35	9	6	4	1	75	10	1	21	6	3	0	-1	16
29	35	9	6	4	1	75	10	1	22	16	10	11.15	49	1
29	35	9	6	4	1	75	10	1	23	6	7	32.19	49	1
29	35	9	6	4	1	75	10	1	23	6	7	260.09	49	6
29	35	9	6	4	1	75	10	1	24	16	4	0	-1	16
29	35	9	6	4	1	75	10	1	25	6	8	771.84	49	16
29	35	9	6	4	1	75	10	1	26	16	3	8.88	49	1
29	35	9	6	4	1	75	10	1	26	16	3	694.45	49	14
29	35	9	6	4	1	75	10	1	27	6	6	8.04	49	1
29	35	9	6	4	1	75	10	1	28	6	1	112.34	49	3
29	35	9	6	4	1	75	10	1	29	6	6	322.66	49	7
29	35	9	6	4	1	75	10	1	30	6	1	0	-1	16
29	35	9	6	4	1	75	10	1	31	16	6	77.42	49	2
29	35	9	6	4	1	75	10	1	32	6	9	0	-1	16
29	35	9	6	4	1	75	10	1	33	6	8	191.23	49	4
29	35	9	6	4	1	75	10	1	34	6	10	81.06	49	2
29	35	9	6	4	1	75	10	1	35	16	8	220.12	49	5
29	35	9	6	4	1	75	10	1	36	6	7	0	-1	16
29	35	9	6	4	1	75	10	1	37	6	4	261.8	49	6
29	35	9	6	4	1	75	10	1	38	6	2	69.31	49	2
29	35	9	6	4	1	75	10	1	39	6	5	110.03	49	3
29	35	9	6	4	1	75	10	1	39	6	5	734.55	49	15
29	35	9	6	4	1	75	10	1	40	16	7	8.73	49	1
29	35	9	6	4	1	75	10	1	41	16	4	0	-1	16
29	35	9	6	4	1	75	10	1	42	6	3	0	-1	16
29	35	9	6	4	1	75	10	1	43	6	7	12.93	49	1
29	35	9	6	4	1	75	10	1	43	6	7	777.58	49	16
29	35	9	6	4	1	75	10	1	44	6	5	10.34	49	1
29	35	9	6	4	1	75	10	1	45	6	2	33.74	49	1
29	35	9	6	4	1	75	10	1	45	6	2	687.56	49	14
29	35	9	6	4	1	75	10	1	46	6	1	8.18	49	1
29	35	9	6	4	1	75	10	1	47	6	9	119.72	49	3
29	35	9	6	4	1	75	10	1	47	6	9	784.22	49	16
29	35	9	6	4	1	75	10	1	48	6	4	8.22	49	1
29	35	9	6	4	1	75	10	1	48	6	4	632.39	49	13
29	35	9	6	4	1	75	10	1	49	16	5	10.66	49	1
29	35	9	6	4	1	75	10	1	49	16	5	668.6	49	14
29	35	9	6	4	1	75	10	1	50	16	1	7.72	49	1
29	35	9	6	4	1	75	10	1	51	6	10	0	-1	16
29	35	9	6	4	1	75	10	1	52	6	6	57.89	49	2
29	35	9	6	4	1	75	10	1	52	6	6	788.35	49	16
29	35	9	6	4	1	75	10	1	53	6	3	11.28	49	1
29	35	9	6	4	1	75	10	1	53	6	3	683.26	49	14
29	35	9	6	4	1	75	10	1	54	6	8	10.48	49	1
29	35	9	6	4	1	75	10	1	55	16	2	89.41	49	2
29	35	9	6	4	1	75	10	1	56	6	2	0	-1	16
29	35	9	6	4	1	75	10	1	57	6	10	13.09	49	1
29	35	9	6	4	1	75	10	1	58	6	9	62.13	49	2
29	35	9	6	4	1	75	10	1	59	16	10	58.95	49	2
29	35	9	6	4	1	75	10	1	60	6	1	107.6	49	3
29	35	9	6	4	1	75	10	1	60	6	1	309.48	49	7
29	35	9	6	4	1	75	10	1	61	6	8	772.53	49	16
29	35	9	6	4	1	75	10	1	62	6	3	7.7	49	1
29	35	9	6	4	1	75	10	1	62	6	3	786.27	49	16
29	35	9	6	4	1	75	10	1	63	6	6	7.88	49	1
29	35	9	6	4	1	75	10	1	63	6	6	672.55	49	14
29	35	9	6	4	1	75	10	1	64	6	5	10.01	49	1
29	35	9	6	4	1	75	10	1	64	6	5	640.82	49	13
29	35	9	6	4	1	75	10	1	65	6	7	8.37	49	1
29	35	9	6	4	1	75	10	1	65	6	7	686.24	49	14
29	35	9	6	4	1	75	10	1	66	6	4	8.05	49	1
29	35	9	6	4	1	75	10	1	66	6	4	719.01	49	15
29	35	9	6	4	1	75	10	1	67	6	7	9.67	49	1
29	35	9	6	4	1	75	10	1	68	6	4	189.86	49	4
29	35	9	6	4	1	75	10	1	69	6	10	63.06	49	2
29	35	9	6	4	1	75	10	1	69	6	10	760.46	49	16
29	35	9	6	4	1	75	10	1	70	6	2	9.09	49	1
29	35	9	6	4	1	75	10	1	70	6	2	771.89	49	16
29	35	9	6	4	1	75	10	1	71	6	1	9.04	49	1
29	35	9	6	4	1	75	10	1	71	6	1	744.74	49	15
29	35	9	6	4	1	75	10	1	72	6	9	7.62	49	1
29	35	9	6	4	1	75	10	1	72	6	9	688.97	49	14
29	35	9	6	4	1	75	10	1	73	6	5	7.92	49	1
29	35	9	6	4	1	75	10	1	73	6	5	632.77	49	13
29	35	9	6	4	1	75	10	1	74	6	6	680.51	49	14
29	35	9	6	4	1	75	10	1	75	6	3	7.74	49	1
29	35	9	6	4	1	75	10	1	75	6	3	631.99	49	13
29	35	9	6	4	1	75	10	1	76	6	8	793.56	49	16
29	35	9	6	4	1	75	10	1	77	6	5	8.72	49	1
29	35	9	6	4	1	75	10	1	77	6	5	667.78	49	14
29	35	9	6	4	1	75	10	1	78	16	9	10.03	49	1
29	35	9	6	4	1	75	10	1	79	16	6	0	-1	16
29	35	9	6	4	1	75	10	1	80	16	3	0	-1	16
29	35	9	6	4	1	75	10	1	81	16	8	0	-1	16
29	35	9	6	4	1	75	10	1	82	6	4	659.4	49	14
29	35	9	6	4	1	75	10	1	83	16	7	10.08	49	1
29	35	9	6	4	1	75	10	1	84	6	10	745.79	49	15
29	35	9	6	4	1	75	10	1	85	6	2	7.43	49	1
29	35	9	6	4	1	75	10	1	85	6	2	743.37	49	15
29	35	9	6	4	1	75	10	1	86	6	9	9.93	49	1
29	35	9	6	4	1	75	10	1	86	6	9	723.14	49	15
29	35	9	6	4	1	75	10	1	87	6	7	9.91	49	1
29	35	9	6	4	1	75	10	1	88	6	8	130.44	49	3
29	35	9	6	4	1	75	10	1	89	6	6	59.45	49	2
29	35	9	6	4	1	75	10	1	89	6	6	722.97	49	15
29	35	9	6	4	1	75	10	1	90	6	3	8.39	49	1
29	35	9	6	4	1	75	10	1	90	6	3	744.14	49	15
29	35	9	6	4	1	75	10	1	91	6	1	8.16	49	1
29	35	9	6	4	1	75	10	1	91	6	1	673.8	49	14
29	35	9	6	4	1	75	10	1	92	6	7	10.07	49	1
29	35	9	6	4	1	75	10	1	92	6	7	659.95	49	14
29	35	9	6	4	1	75	10	1	93	16	9	10.02	49	1
29	35	9	6	4	1	75	10	1	94	6	5	0	-1	16
29	35	9	6	4	1	75	10	1	95	6	2	9.97	49	1
29	35	9	6	4	1	75	10	1	95	6	2	687.08	49	14
29	35	9	6	4	1	75	10	1	96	6	1	8.76	49	1
29	35	9	6	4	1	75	10	1	97	6	9	107.68	49	3
29	35	9	6	4	1	75	10	1	97	6	9	307.75	49	7
29	35	9	6	4	1	75	10	1	97	6	9	757.72	49	16
29	35	9	6	4	1	75	10	1	98	16	2	7.88	49	1
29	35	9	6	4	1	75	10	1	99	6	4	757.37	49	16
29	35	9	6	4	1	75	10	1	100	16	4	10.73	49	1
29	35	9	6	4	1	75	10	1	100	16	4	757.97	49	16
29	35	9	6	4	1	75	10	1	101	6	10	8.1	49	1
29	35	9	6	4	1	75	10	1	102	6	3	685.08	49	14
29	35	9	6	4	1	75	10	1	103	6	6	8.62	49	1
29	35	9	6	4	1	75	10	1	103	6	6	589.43	49	12
29	35	9	6	4	1	75	10	1	104	6	8	718.57	49	15
29	35	9	6	4	1	75	10	1	105	6	5	9.92	49	1
29	35	9	6	4	1	75	10	1	105	6	5	677.48	49	14
29	35	9	6	4	1	75	10	1	106	6	9	12.06	49	1
29	35	9	6	4	1	75	10	1	106	6	9	661.86	49	14
29	35	9	6	4	1	75	10	1	107	16	10	10.48	49	1
29	35	9	6	4	1	75	10	1	108	6	4	176.16	49	4
29	35	9	6	4	1	75	10	1	109	16	1	0	-1	16
29	35	9	6	4	1	75	10	1	110	6	2	0	-1	16
29	35	9	6	4	1	75	10	1	111	6	10	236.74	49	5
29	35	9	6	4	1	75	10	1	112	6	6	782.12	49	16
29	35	9	6	4	1	75	10	1	113	16	5	9.98	49	1
29	35	9	6	4	1	75	10	1	114	6	3	707.4	49	15
29	35	9	6	4	1	75	10	1	115	6	7	9.9	49	1
29	35	9	6	4	1	75	10	1	115	6	7	666.17	49	14
29	35	9	6	4	1	75	10	1	116	16	3	7.94	49	1
29	35	9	6	4	1	75	10	1	117	16	6	0	-1	16
29	35	9	6	4	1	75	10	1	118	16	8	0	-1	16
29	35	9	6	4	1	75	10	1	119	6	8	693.42	49	14
29	35	9	6	4	1	75	10	1	120	6	1	9.9	49	1
29	35	9	6	4	1	75	10	1	120	6	1	708.73	49	15
29	35	9	6	4	1	75	10	1	121	16	5	8.96	49	1
29	35	9	6	4	1	75	10	1	122	6	5	713.87	49	15
29	35	9	6	4	1	75	10	1	123	6	2	7.73	49	1
29	35	9	6	4	1	75	10	1	123	6	2	707.44	49	15
29	35	9	6	4	1	75	10	1	124	16	4	7.88	49	1
29	35	9	6	4	1	75	10	1	125	16	9	0	-1	16
29	35	9	6	4	1	75	10	1	126	16	10	790.92	49	16
29	35	9	6	4	1	75	10	1	127	6	10	8.3	49	1
29	35	9	6	4	1	75	10	1	128	16	2	94.86	49	2
29	35	9	6	4	1	75	10	1	129	16	6	0	-1	16
29	35	9	6	4	1	75	10	1	130	16	8	0	-1	16
29	35	9	6	4	1	75	10	1	131	16	7	0	-1	16
29	35	9	6	4	1	75	10	1	132	6	9	713.14	49	15
29	35	9	6	4	1	75	10	1	133	6	4	12.61	49	1
29	35	9	6	4	1	75	10	1	133	6	4	665.82	49	14
29	35	9	6	4	1	75	10	1	134	6	8	8.88	49	1
29	35	9	6	4	1	75	10	1	134	6	8	758.34	49	16
29	35	9	6	4	1	75	10	1	135	6	7	7.82	49	1
29	35	9	6	4	1	75	10	1	135	6	7	713.43	49	15
29	35	9	6	4	1	75	10	1	136	6	3	8.1	49	1
29	35	9	6	4	1	75	10	1	136	6	3	694.31	49	14
29	35	9	6	4	1	75	10	1	137	6	6	7.82	49	1
29	35	9	6	4	1	75	10	1	137	6	6	568.16	49	12
29	35	9	6	4	1	75	10	1	138	6	1	783.45	49	16
29	35	9	6	4	1	75	10	1	139	16	3	7.92	49	1
29	35	9	6	4	1	75	10	1	140	16	1	619.63	49	13
29	35	9	6	4	1	75	10	1	141	16	6	0	-1	16
29	35	9	6	4	1	75	10	1	142	6	7	778.05	49	16
29	35	9	6	4	1	75	10	1	143	6	2	13.44	49	1
29	35	9	6	4	1	75	10	1	143	6	2	764.75	49	16
29	35	9	6	4	1	75	10	1	144	16	10	12.75	49	1
29	35	9	6	4	1	75	10	1	145	6	10	615.13	49	13
29	35	9	6	4	1	75	10	1	146	6	4	9.97	49	1
29	35	9	6	4	1	75	10	1	146	6	4	583.96	49	12
29	35	9	6	4	1	75	10	1	147	6	5	530.87	49	11
29	35	9	6	4	1	75	10	1	147	6	5	758.27	49	16
29	35	9	6	4	1	75	10	1	148	6	1	586.42	49	12
29	35	9	6	4	1	75	10	1	149	6	9	596.21	49	12
29	35	9	6	4	1	75	10	1	150	6	6	638.79	49	13
29	35	9	6	4	1	75	10	1	151	6	3	7.25	49	1
29	35	9	6	4	1	75	10	1	151	6	3	708.28	49	15
29	35	9	6	4	1	75	10	1	152	6	8	7.53	49	1
29	35	9	6	4	1	75	10	1	153	6	7	24.3	49	1
29	35	9	6	4	1	75	10	1	153	6	7	744.27	49	15
29	35	9	6	4	1	75	10	1	154	6	9	8.26	49	1
29	35	9	6	4	1	75	10	1	155	6	4	80.85	49	2
29	35	9	6	4	1	75	10	1	155	6	4	791.58	49	16
29	35	9	6	4	1	75	10	1	156	6	2	10.5	49	1
29	35	9	6	4	1	75	10	1	157	6	10	86.28	49	2
29	35	9	6	4	1	75	10	1	157	6	10	760.14	49	16
29	35	9	6	4	1	75	10	1	158	6	5	9.94	49	1
29	35	9	6	4	1	75	10	1	158	6	5	675.07	49	14
29	35	9	6	4	1	75	10	1	159	6	1	8.66	49	1
29	35	9	6	4	1	75	10	1	159	6	1	766.41	49	16
29	35	9	6	4	1	75	10	1	160	6	3	7.69	49	1
29	35	9	6	4	1	75	10	1	160	6	3	681.88	49	14
29	35	9	6	4	1	75	10	1	161	16	4	7.5	49	1
29	35	9	6	4	1	75	10	1	162	6	6	0	-1	16
29	35	9	6	4	1	75	10	1	163	16	8	73.8	49	2
29	35	9	6	4	1	75	10	1	164	6	8	609.87	49	13
29	35	9	6	4	1	75	10	1	165	6	6	608.26	49	13
29	35	9	6	4	1	75	10	1	166	16	7	0	-1	16
29	35	9	6	4	1	75	10	1	167	6	4	710.58	49	15
29	35	9	6	4	1	75	10	1	168	6	5	11.67	49	1
29	35	9	6	4	1	75	10	1	168	6	5	791.22	49	16
29	35	9	6	4	1	75	10	1	169	6	10	10.21	49	1
29	35	9	6	4	1	75	10	1	169	6	10	760.38	49	16
29	35	9	6	4	1	75	10	1	170	6	9	13.28	49	1
29	35	9	6	4	1	75	10	1	171	6	7	111.72	49	3
29	35	9	6	4	1	75	10	1	172	16	5	60.92	49	2
29	35	9	6	4	1	75	10	1	173	6	2	0	-1	16
29	35	9	6	4	1	75	10	1	174	16	2	121.63	49	3
29	35	9	6	4	1	75	10	1	175	6	1	692.14	49	14
29	35	9	6	4	1	75	10	1	176	6	8	7.1	49	1
29	35	9	6	4	1	75	10	1	176	6	8	757.3	49	16
29	35	9	6	4	1	75	10	1	177	6	3	10.35	49	1
29	35	9	6	4	1	75	10	1	177	6	3	737.32	49	15
29	35	9	6	4	1	75	10	1	178	6	5	8.16	49	1
29	35	9	6	4	1	75	10	1	178	6	5	707.4	49	15
29	35	9	6	4	1	75	10	1	179	6	4	8.24	49	1
29	35	9	6	4	1	75	10	1	179	6	4	666.27	49	14
29	35	9	6	4	1	75	10	1	180	6	2	12.28	49	1
29	35	9	6	4	1	75	10	1	181	6	10	15.24	49	1
29	35	9	6	4	1	75	10	1	181	6	10	792.55	49	16
29	35	9	6	4	1	75	10	1	182	6	9	10.72	49	1
29	35	9	6	4	1	75	10	1	183	6	6	10.73	49	1
29	35	9	6	4	1	75	10	1	183	6	6	675.49	49	14
29	35	9	6	4	1	75	10	1	184	16	9	9.13	49	1
29	35	9	6	4	1	75	10	1	185	16	1	0	-1	16
29	35	9	6	4	1	75	10	1	186	6	8	0	-1	16
29	35	9	6	4	1	75	10	1	187	6	7	0	-1	16
29	35	9	6	4	1	75	10	1	188	6	3	142.62	49	3
29	35	9	6	4	1	75	10	1	188	6	3	776.48	49	16
29	35	9	6	4	1	75	10	1	189	6	1	7.81	49	1
29	35	9	6	4	1	75	10	1	189	6	1	726.71	49	15
29	35	9	6	4	1	75	10	1	190	6	6	7.53	49	1
29	35	9	6	4	1	75	10	1	190	6	6	635.94	49	13
29	35	9	6	4	1	75	10	1	191	16	3	9.16	49	1
29	35	9	6	4	1	75	10	1	192	6	4	0	-1	16
29	35	9	6	4	1	75	10	1	193	6	1	0	-1	16
29	35	9	6	4	1	75	10	1	194	6	2	28.03	49	1
29	35	9	6	4	1	75	10	1	195	16	6	60.13	49	2
29	35	9	6	4	1	75	10	1	196	6	5	721.02	49	15
29	35	9	6	4	1	75	10	1	197	6	9	8.77	49	1
29	35	9	6	4	1	75	10	1	197	6	9	760.58	49	16
29	35	9	6	4	1	75	10	1	198	16	8	8.24	49	1
29	35	9	6	4	1	75	10	1	199	16	10	0	-1	16
29	35	9	6	4	1	75	10	1	200	6	10	529.64	49	11
29	35	9	6	4	1	75	10	1	201	6	7	657.21	49	14
29	35	9	6	4	1	75	10	1	202	6	8	10.53	49	1
29	35	9	6	4	1	75	10	1	203	16	2	62.48	49	2
29	35	9	6	4	1	75	10	1	204	6	3	591.11	49	12
29	35	9	6	4	1	75	10	1	205	16	7	0	-1	16
29	35	9	6	4	1	75	10	1	206	6	7	769.73	49	16
29	35	9	6	4	1	75	10	1	207	6	1	10.54	49	1
29	35	9	6	4	1	75	10	1	208	6	5	110.17	49	3
29	35	9	6	4	1	75	10	1	208	6	5	716.79	49	15
29	35	9	6	4	1	75	10	1	209	16	1	10.02	49	1
29	35	9	6	4	1	75	10	1	210	6	10	745.6	49	15
29	35	9	6	4	1	75	10	1	211	6	4	7.55	49	1
29	35	9	6	4	1	75	10	1	212	16	4	9	49	1
29	35	9	6	4	1	75	10	1	212	16	4	209.49	49	5
29	35	9	6	4	1	75	10	1	213	6	2	0	-1	16
29	35	9	6	4	1	75	10	1	214	6	9	57.53	49	2
29	35	9	6	4	1	75	10	1	214	6	9	742.85	49	15
29	35	9	6	4	1	75	10	1	215	16	5	7.81	49	1
29	35	9	6	4	1	75	10	1	216	6	3	629.02	49	13
29	35	9	6	4	1	75	10	1	217	6	6	8.12	49	1
29	35	9	6	4	1	75	10	1	217	6	6	658.31	49	14
29	35	9	6	4	1	75	10	1	218	6	8	13.15	49	1
29	35	9	6	4	1	75	10	1	218	6	8	773.49	49	16
29	35	9	6	4	1	75	10	1	219	6	6	14.27	49	1
29	35	9	6	4	1	75	10	1	219	6	6	661.09	49	14
29	35	9	6	4	1	75	10	1	220	6	4	10.14	49	1
29	35	9	6	4	1	75	10	1	220	6	4	639.06	49	13
29	35	9	6	4	1	75	10	1	221	16	9	11.49	49	1
29	35	9	6	4	1	75	10	1	222	6	9	609.45	49	13
29	35	9	6	4	1	75	10	1	223	6	10	708.44	49	15
29	35	9	6	4	1	75	10	1	224	6	1	7.98	49	1
29	35	9	6	4	1	75	10	1	225	16	3	10.95	49	1
29	35	9	6	4	1	75	10	1	226	6	2	767.73	49	16
29	35	9	6	4	1	75	10	1	227	6	7	7.79	49	1
29	35	9	6	4	1	75	10	1	227	6	7	635.4	49	13
29	35	9	6	4	1	75	10	1	228	6	5	8.97	49	1
29	35	9	6	4	1	75	10	1	228	6	5	644.96	49	13
29	35	9	6	4	1	75	10	1	229	6	8	8.2	49	1
29	35	9	6	4	1	75	10	1	230	6	3	33.88	49	1
29	35	9	6	4	1	75	10	1	230	6	3	675.59	49	14
29	35	9	6	4	1	75	10	1	231	6	6	10.16	49	1
29	35	9	6	4	1	75	10	1	231	6	6	626.31	49	13
29	35	9	6	4	1	75	10	1	232	16	6	10.35	49	1
29	35	9	6	4	1	75	10	1	233	16	7	0	-1	16
29	35	9	6	4	1	75	10	1	234	6	5	634.31	49	13
29	35	9	6	4	1	75	10	1	235	6	7	8.59	49	1
29	35	9	6	4	1	75	10	1	235	6	7	782.66	49	16
29	35	9	6	4	1	75	10	1	236	16	8	7.89	49	1
29	35	9	6	4	1	75	10	1	236	16	8	737.16	49	15
29	35	9	6	4	1	75	10	1	237	6	1	8.83	49	1
29	35	9	6	4	1	75	10	1	238	6	2	10.74	49	1
29	35	9	6	4	1	75	10	1	238	6	2	766.08	49	16
29	35	9	6	4	1	75	10	1	239	6	8	10.77	49	1
29	35	9	6	4	1	75	10	1	239	6	8	797.08	49	16
29	35	9	6	4	1	75	10	1	240	6	4	7.82	49	1
29	35	9	6	4	1	75	10	1	240	6	4	637.3	49	13
29	35	9	6	4	1	75	10	1	241	6	9	8.9	49	1
29	35	9	6	4	1	75	10	1	241	6	9	737.98	49	15
29	35	9	6	4	1	75	10	1	242	6	10	7.91	49	1
29	35	9	6	4	1	75	10	1	242	6	10	758.23	49	16
29	35	9	6	4	1	75	10	1	243	6	3	10.66	49	1
29	35	9	6	4	1	75	10	1	243	6	3	783.52	49	16
29	35	9	6	4	1	75	10	1	244	16	5	10.92	49	1
29	35	9	6	4	1	75	10	1	245	6	7	760.62	49	16
29	35	9	6	4	1	75	10	1	246	6	10	10.88	49	1
29	35	9	6	4	1	75	10	1	247	6	4	8.7	49	1
29	35	9	6	4	1	75	10	1	247	6	4	769.16	49	16
29	35	9	6	4	1	75	10	1	248	6	2	11.26	49	1
29	35	9	6	4	1	75	10	1	249	6	5	19.3	49	1
29	35	9	6	4	1	75	10	1	249	6	5	771.23	49	16
29	35	9	6	4	1	75	10	1	250	16	2	7.83	49	1
29	35	9	6	4	1	75	10	1	251	16	1	0	-1	16
29	35	9	6	4	1	75	10	1	252	6	1	757.08	49	16
29	35	9	6	4	1	75	10	1	253	16	4	7.79	49	1
29	35	9	6	4	1	75	10	1	254	6	9	677.6	49	14
29	35	9	6	4	1	75	10	1	255	6	6	8.06	49	1
29	35	9	6	4	1	75	10	1	256	6	3	29.37	49	1
29	35	9	6	4	1	75	10	1	256	6	3	761.21	49	16
29	35	9	6	4	1	75	10	1	257	6	8	10.23	49	1
29	35	9	6	4	1	75	10	1	257	6	8	678.31	49	14
29	35	9	6	4	1	75	10	1	258	6	6	12.08	49	1
29	35	9	6	4	1	75	10	1	258	6	6	588.41	49	12
29	35	9	6	4	1	75	10	1	259	6	2	0	-1	16
29	35	9	6	4	1	75	10	1	260	6	7	71.63	49	2
29	35	9	6	4	1	75	10	1	261	16	9	34.37	49	1
29	35	9	6	4	1	75	10	1	262	6	8	766.53	49	16
29	35	9	6	4	1	75	10	1	263	6	5	8.29	49	1
29	35	9	6	4	1	75	10	1	263	6	5	733.87	49	15
29	35	9	6	4	1	75	10	1	264	6	9	8.28	49	1
29	35	9	6	4	1	75	10	1	264	6	9	710.46	49	15
29	35	9	6	4	1	75	10	1	265	16	10	7.7	49	1
29	35	9	6	4	1	75	10	1	265	16	10	784.13	49	16
29	35	9	6	4	1	75	10	1	266	6	1	8.39	49	1
29	35	9	6	4	1	75	10	1	266	6	1	257.21	49	6
29	35	9	6	4	1	75	10	1	266	6	1	607.86	49	13
29	35	9	6	4	1	75	10	1	267	6	4	678.31	49	14
29	35	9	6	4	1	75	10	1	268	6	10	9.8	49	1
29	35	9	6	4	1	75	10	1	268	6	10	624.03	49	13
29	35	9	6	4	1	75	10	1	269	16	3	15.44	49	1
29	35	9	6	4	1	75	10	1	269	16	3	659.88	49	14
29	35	9	6	4	1	75	10	1	270	6	3	10.24	49	1
29	35	9	6	4	1	75	10	1	270	6	3	212.91	49	5
29	35	9	6	4	1	75	10	1	270	6	3	627.65	49	13
29	35	9	6	4	1	75	10	1	271	16	7	0	-1	16
29	35	9	6	4	1	75	10	1	272	6	6	664.02	49	14
29	35	9	6	4	1	75	10	1	273	16	1	8.42	49	1
29	35	9	6	4	1	75	10	1	274	6	8	0	-1	16
29	35	9	6	4	1	75	10	1	275	6	4	260.39	49	6
29	35	9	6	4	1	75	10	1	276	16	10	31	49	1
29	35	9	6	4	1	75	10	1	277	6	10	757.44	49	16
29	35	9	6	4	1	75	10	1	278	6	2	8.1	49	1
29	35	9	6	4	1	75	10	1	278	6	2	738.43	49	15
29	35	9	6	4	1	75	10	1	279	6	9	8.12	49	1
29	35	9	6	4	1	75	10	1	280	6	1	10.67	49	1
29	35	9	6	4	1	75	10	1	281	6	5	23.92	49	1
29	35	9	6	4	1	75	10	1	281	6	5	759.98	49	16
29	35	9	6	4	1	75	10	1	282	6	7	10.72	49	1
29	35	9	6	4	1	75	10	1	283	6	3	9.89	49	1
29	35	9	6	4	1	75	10	1	283	6	3	210.12	49	5
29	35	9	6	4	1	75	10	1	284	6	2	85.29	49	2
29	35	9	6	4	1	75	10	1	285	6	10	72.71	49	2
29	35	9	6	4	1	75	10	1	285	6	10	740.68	49	15
29	35	9	6	4	1	75	10	1	286	6	9	7.92	49	1
29	35	9	6	4	1	75	10	1	287	6	8	67.72	49	2
29	35	9	6	4	1	75	10	1	287	6	8	738.29	49	15
29	35	9	6	4	1	75	10	1	288	16	9	7.44	49	1
29	35	9	6	4	1	75	10	1	289	6	5	609.19	49	13
29	35	9	6	4	1	75	10	1	290	6	1	688.48	49	14
29	35	9	6	4	1	75	10	1	291	6	7	10.3	49	1
29	35	9	6	4	1	75	10	1	291	6	7	777.95	49	16
29	35	9	6	4	1	75	10	1	292	16	2	8.51	49	1
29	35	9	6	4	1	75	10	1	293	6	3	666.01	49	14
29	35	9	6	4	1	75	10	1	294	6	6	15.61	49	1
29	35	9	6	4	1	75	10	1	294	6	6	660.41	49	14
29	35	9	6	4	1	75	10	1	295	6	4	10.34	49	1
29	35	9	6	4	1	75	10	1	295	6	4	712.87	49	15
29	35	9	6	4	1	75	10	1	296	16	5	10.55	49	1
29	35	9	6	4	1	75	10	1	297	16	4	0	-1	16
29	35	9	6	4	1	75	10	1	298	6	2	0	-1	16
29	35	9	6	4	1	75	10	1	299	6	9	187.25	49	4
29	35	9	6	4	1	75	10	1	299	6	9	758.9	49	16
29	35	9	6	4	1	75	10	1	300	6	10	10.69	49	1
29	35	9	6	4	1	75	10	1	300	6	10	707.29	49	15
29	35	9	6	4	1	75	10	1	301	16	6	7.46	49	1
29	35	9	6	4	1	75	10	1	302	6	1	695.58	49	14
29	35	9	6	4	1	75	10	1	303	6	8	7.28	49	1
29	35	9	6	4	1	75	10	1	304	16	3	73.32	49	2
29	35	9	6	4	1	75	10	1	305	6	6	660.04	49	14
29	35	9	6	4	1	75	10	1	306	16	8	10.43	49	1
29	35	9	6	4	1	75	10	1	307	6	7	759.93	49	16
29	35	9	6	4	1	75	10	1	308	6	3	12.86	49	1
29	35	9	6	4	1	75	10	1	309	16	7	10.34	49	1
29	35	9	6	4	1	75	10	1	309	16	7	759.53	49	16
29	35	9	6	4	1	75	10	1	310	16	1	8.94	49	1
29	35	9	6	4	1	75	10	1	311	6	5	721.29	49	15
29	35	9	6	4	1	75	10	1	312	6	4	7.56	49	1
29	35	9	6	4	1	75	10	1	312	6	4	707.43	49	15
29	35	9	6	4	1	75	10	1	313	6	7	7.94	49	1
29	35	9	6	4	1	75	10	1	314	16	9	7.86	49	1
29	35	9	6	4	1	75	10	1	315	6	9	635.01	49	13
29	35	9	6	4	1	75	10	1	316	16	4	7.9	49	1
29	35	9	6	4	1	75	10	1	317	6	2	690.02	49	14
29	35	9	6	4	1	75	10	1	318	6	4	8.01	49	1
29	35	9	6	4	1	75	10	1	319	16	5	15.28	49	1
29	35	9	6	4	1	75	10	1	320	6	5	677.25	49	14
29	35	9	6	4	1	75	10	1	321	6	1	10.5	49	1
29	35	9	6	4	1	75	10	1	322	6	10	26.86	49	1
29	35	9	6	4	1	75	10	1	322	6	10	262.03	49	6
29	35	9	6	4	1	75	10	1	323	16	10	158.11	49	4
29	35	9	6	4	1	75	10	1	324	16	2	0	-1	16
29	35	9	6	4	1	75	10	1	325	6	6	757.62	49	16
29	35	9	6	4	1	75	10	1	326	6	3	9.04	49	1
29	35	9	6	4	1	75	10	1	326	6	3	707.58	49	15
29	35	9	6	4	1	75	10	1	327	6	8	7.59	49	1
29	35	9	6	4	1	75	10	1	328	6	5	218.7	49	5
29	35	9	6	4	1	75	10	1	328	6	5	788.25	49	16
29	35	9	6	4	1	75	10	1	329	6	10	10.63	49	1
29	35	9	6	4	1	75	10	1	330	6	4	24.04	49	1
29	35	9	6	4	1	75	10	1	330	6	4	715.3	49	15
29	35	9	6	4	1	75	10	1	331	6	9	10.83	49	1
29	35	9	6	4	1	75	10	1	331	6	9	631.76	49	13
29	35	9	6	4	1	75	10	1	332	6	2	0	-1	16
29	35	9	6	4	1	75	10	1	333	6	8	141.89	49	3
29	35	9	6	4	1	75	10	1	333	6	8	710.28	49	15
29	35	9	6	4	1	75	10	1	334	6	7	10.84	49	1
29	35	9	6	4	1	75	10	1	334	6	7	734.22	49	15
29	35	9	6	4	1	75	10	1	335	6	3	9.16	49	1
29	35	9	6	4	1	75	10	1	335	6	3	715.75	49	15
29	35	9	6	4	1	75	10	1	336	6	6	8.19	49	1
29	35	9	6	4	1	75	10	1	336	6	6	658.79	49	14
29	35	9	6	4	1	75	10	1	337	6	1	739	49	15
29	35	9	6	4	1	75	10	1	338	6	7	7.43	49	1
29	35	9	6	4	1	75	10	1	338	6	7	644.68	49	13
29	35	9	6	4	1	75	10	1	339	6	9	664.42	49	14
29	35	9	6	4	1	75	10	1	340	6	4	8.3	49	1
29	35	9	6	4	1	75	10	1	340	6	4	682.1	49	14
29	35	9	6	4	1	75	10	1	341	6	10	7.68	49	1
29	35	9	6	4	1	75	10	1	341	6	10	695	49	14
29	35	9	6	4	1	75	10	1	342	6	5	11.04	49	1
29	35	9	6	4	1	75	10	1	342	6	5	694.49	49	14
29	35	9	6	4	1	75	10	1	343	16	6	11.69	49	1
29	35	9	6	4	1	75	10	1	344	16	3	0	-1	16
29	35	9	6	4	1	75	10	1	345	16	8	0	-1	16
29	35	9	6	4	1	75	10	1	346	6	2	0	-1	16
29	35	9	6	4	1	75	10	1	347	16	2	10.66	49	1
29	35	9	6	4	1	75	10	1	347	16	2	762.52	49	16
29	35	9	6	4	1	75	10	1	348	6	1	9.05	49	1
29	35	9	6	4	1	75	10	1	348	6	1	689.6	49	14
29	35	9	6	4	1	75	10	1	349	6	3	8.49	49	1
29	35	9	6	4	1	75	10	1	349	6	3	658.32	49	14
29	35	9	6	4	1	75	10	1	350	6	6	7.95	49	1
29	35	9	6	4	1	75	10	1	350	6	6	630.76	49	13
29	35	9	6	4	1	75	10	1	351	6	8	0	-1	16
29	35	9	6	4	1	75	10	1	352	6	2	8.53	49	1
29	35	9	6	4	1	75	10	1	353	6	9	57.65	49	2
29	35	9	6	4	1	75	10	1	353	6	9	757.26	49	16
29	35	9	6	4	1	75	10	1	354	6	10	8.02	49	1
29	35	9	6	4	1	75	10	1	355	6	7	8.8	49	1
29	35	9	6	4	1	75	10	1	356	16	9	308.28	49	7
29	35	9	6	4	1	75	10	1	357	6	1	610.47	49	13
29	35	9	6	4	1	75	10	1	358	6	6	727.62	49	15
29	35	9	6	4	1	75	10	1	359	6	5	13.18	49	1
29	35	9	6	4	1	75	10	1	359	6	5	760.49	49	16
29	35	9	6	4	1	75	10	1	360	6	8	9.84	49	1
29	35	9	6	4	1	75	10	1	360	6	8	640.65	49	13
29	35	9	6	4	1	75	10	1	361	6	3	10.32	49	1
29	35	9	6	4	1	75	10	1	361	6	3	757.88	49	16
29	35	9	6	4	1	75	10	1	362	6	4	7.97	49	1
29	35	9	6	4	1	75	10	1	362	6	4	789.5	49	16
29	35	9	6	4	1	75	10	1	363	6	5	7.91	49	1
29	35	9	6	4	1	75	10	1	363	6	5	764.21	49	16
29	35	9	6	4	1	75	10	1	364	6	2	9.03	49	1
29	35	9	6	4	1	75	10	1	364	6	2	695.38	49	14
29	35	9	6	4	1	75	10	1	365	16	10	57.45	49	2
29	35	9	6	4	1	75	10	1	366	6	10	660.52	49	14
29	35	9	6	4	1	75	10	1	367	6	9	8.32	49	1
29	35	9	6	4	1	75	10	1	367	6	9	677.2	49	14
29	35	9	6	4	1	75	10	1	368	6	4	11.79	49	1
29	35	9	6	4	1	75	10	1	368	6	4	741.44	49	15
29	35	9	6	4	1	75	10	1	369	6	3	8.08	49	1
29	35	9	6	4	1	75	10	1	369	6	3	744.82	49	15
29	35	9	6	4	1	75	10	1	370	6	8	57.67	49	2
29	35	9	6	4	1	75	10	1	370	6	8	734.76	49	15
29	35	9	6	4	1	75	10	1	371	6	7	8.14	49	1
29	35	9	6	4	1	75	10	1	371	6	7	739.91	49	15
29	35	9	6	4	1	75	10	1	372	6	6	7.66	49	1
29	35	9	6	4	1	75	10	1	372	6	6	656.94	49	14
29	35	9	6	4	1	75	10	1	373	6	1	8.12	49	1
29	35	9	6	4	1	75	10	1	374	6	2	8.22	49	1
29	35	9	6	4	1	75	10	1	374	6	2	719.2	49	15
29	35	9	6	4	1	75	10	1	375	6	10	33.38	49	1
29	35	9	6	4	1	75	10	1	375	6	10	664.56	49	14
29	35	9	6	4	1	75	10	1	376	6	9	10.16	49	1
29	35	9	6	4	1	75	10	1	376	6	9	760.76	49	16
29	35	9	6	4	1	75	10	1	377	6	7	12.16	49	1
29	35	9	6	4	1	75	10	1	377	6	7	617.94	49	13
29	35	9	6	4	1	75	10	1	378	16	7	10.32	49	1
29	35	9	6	4	1	75	10	1	379	16	3	0	-1	16
29	35	9	6	4	1	75	10	1	380	16	5	0	-1	16
29	35	9	6	4	1	75	10	1	381	6	5	660.96	49	14
29	35	9	6	4	1	75	10	1	382	16	6	7.91	49	1
29	35	9	6	4	1	75	10	1	383	6	8	0	-1	16
29	35	9	6	4	1	75	10	1	384	6	1	24.65	49	1
29	35	9	6	4	1	75	10	1	384	6	1	772.85	49	16
29	35	9	6	4	1	75	10	1	385	6	6	21.64	49	1
29	35	9	6	4	1	75	10	1	385	6	6	724.89	49	15
29	35	9	6	4	1	75	10	1	386	6	3	7.26	49	1
29	35	9	6	4	1	75	10	1	386	6	3	658.05	49	14
29	35	9	6	4	1	75	10	1	387	16	8	8.59	49	1
29	35	9	6	4	1	75	10	1	388	6	4	709.2	49	15
29	35	9	6	4	1	75	10	1	389	6	7	10.03	49	1
29	35	9	6	4	1	75	10	1	390	6	1	40.41	49	1
29	35	9	6	4	1	75	10	1	391	6	2	62.4	49	2
29	35	9	6	4	1	75	10	1	392	6	5	80.42	49	2
29	35	9	6	4	1	75	10	1	392	6	5	793.08	49	16
29	35	9	6	4	1	75	10	1	393	16	1	9.22	49	1
29	35	9	6	4	1	75	10	1	394	6	10	0	-1	16
29	35	9	6	4	1	75	10	1	395	16	4	93.83	49	2
29	35	9	6	4	1	75	10	1	396	6	4	731.4	49	15
29	35	9	6	4	1	75	10	1	397	6	9	8.34	49	1
29	35	9	6	4	1	75	10	1	398	6	6	173.16	49	4
29	35	9	6	4	1	75	10	1	398	6	6	766.89	49	16
29	35	9	6	4	1	75	10	1	399	6	3	7.91	49	1
29	35	9	6	4	1	75	10	1	399	6	3	657.66	49	14
29	35	9	6	4	1	75	10	1	400	6	8	15.38	49	1
29	35	9	6	4	1	75	10	1	400	6	8	729.74	49	15
29	35	9	6	4	1	75	10	1	401	16	5	8.14	49	1
29	35	9	6	4	1	75	10	1	401	16	5	678.81	49	14
29	35	9	6	4	1	75	10	1	402	6	6	9.92	49	1
29	35	9	6	4	1	75	10	1	402	6	6	659.75	49	14
29	35	9	6	4	1	75	10	1	403	16	9	743.53	49	15
29	35	9	6	4	1	75	10	1	404	6	10	12.78	49	1
29	35	9	6	4	1	75	10	1	404	6	10	679.13	49	14
29	35	9	6	4	1	75	10	1	405	6	9	10.31	49	1
29	35	9	6	4	1	75	10	1	406	16	2	77.37	49	2
29	35	9	6	4	1	75	10	1	407	16	10	0	-1	16
29	35	9	6	4	1	75	10	1	408	6	5	659.38	49	14
29	35	9	6	4	1	75	10	1	409	16	4	7.47	49	1
29	35	9	6	4	1	75	10	1	410	16	6	0	-1	16
29	35	9	6	4	1	75	10	1	411	6	7	0	-1	16
29	35	9	6	4	1	75	10	1	412	16	7	40.41	49	1
29	35	9	6	4	1	75	10	1	413	6	4	723.26	49	15
29	35	9	6	4	1	75	10	1	414	16	8	8.26	49	1
29	35	9	6	4	1	75	10	1	415	6	2	712.93	49	15
29	35	9	6	4	1	75	10	1	416	6	1	11.01	49	1
29	35	9	6	4	1	75	10	1	417	6	8	210.47	49	5
29	35	9	6	4	1	75	10	1	417	6	8	789.65	49	16
29	35	9	6	4	1	75	10	1	418	6	3	9.75	49	1
29	35	9	6	4	1	75	10	1	418	6	3	689.44	49	14
29	35	9	6	4	1	75	10	1	419	6	2	9.36	49	1
29	35	9	6	4	1	75	10	1	419	6	2	738.53	49	15
29	35	9	6	4	1	75	10	1	420	6	10	10.94	49	1
29	35	9	6	4	1	75	10	1	420	6	10	788.97	49	16
29	35	9	6	4	1	75	10	1	421	16	3	8.38	49	1
29	35	9	6	4	1	75	10	1	422	6	9	718.74	49	15
29	35	9	6	4	1	75	10	1	423	16	1	7.64	49	1
29	35	9	6	4	1	75	10	1	424	6	7	0	-1	16
29	35	9	6	4	1	75	10	1	425	6	6	721.13	49	15
29	35	9	6	4	1	75	10	1	426	16	6	10.52	49	1
29	35	9	6	4	1	75	10	1	427	6	5	710.47	49	15
29	35	9	6	4	1	75	10	1	428	16	7	10.36	49	1
29	35	9	6	4	1	75	10	1	429	6	8	660.67	49	14
29	35	9	6	4	1	75	10	1	430	6	1	12.79	49	1
29	35	9	6	4	1	75	10	1	431	16	1	30.07	49	1
29	35	9	6	4	1	75	10	1	432	6	3	770.44	49	16
29	35	9	6	4	1	75	10	1	433	6	4	8.4	49	1
29	35	9	6	4	1	75	10	1	433	6	4	711.43	49	15
29	35	9	6	4	1	75	10	1	434	6	6	7.82	49	1
29	35	9	6	4	1	75	10	1	434	6	6	721.73	49	15
29	35	9	6	4	1	75	10	1	435	6	1	10.2	49	1
29	35	9	6	4	1	75	10	1	436	6	4	41.95	49	1
29	35	9	6	4	1	75	10	1	436	6	4	707.5	49	15
29	35	9	6	4	1	75	10	1	437	6	10	7.76	49	1
29	35	9	6	4	1	75	10	1	437	6	10	775.08	49	16
29	35	9	6	4	1	75	10	1	438	6	5	8.27	49	1
29	35	9	6	4	1	75	10	1	438	6	5	786.89	49	16
29	35	9	6	4	1	75	10	1	439	16	10	8	49	1
29	35	9	6	4	1	75	10	1	440	6	7	692.87	49	14
29	35	9	6	4	1	75	10	1	441	6	2	10.27	49	1
29	35	9	6	4	1	75	10	1	442	6	9	11.11	49	1
29	35	9	6	4	1	75	10	1	443	6	8	165.08	49	4
29	35	9	6	4	1	75	10	1	444	6	3	11.77	49	1
29	35	9	6	4	1	75	10	1	445	6	5	11.18	49	1
29	35	9	6	4	1	75	10	1	445	6	5	668.14	49	14
29	35	9	6	4	1	75	10	1	446	6	4	7.61	49	1
29	35	9	6	4	1	75	10	1	446	6	4	657.79	49	14
29	35	9	6	4	1	75	10	1	447	6	9	8.58	49	1
29	35	9	6	4	1	75	10	1	447	6	9	681.91	49	14
29	35	9	6	4	1	75	10	1	448	6	2	7.6	49	1
29	35	9	6	4	1	75	10	1	449	6	10	117.27	49	3
29	35	9	6	4	1	75	10	1	449	6	10	766.04	49	16
29	35	9	6	4	1	75	10	1	450	6	8	8.86	49	1
