SubjectNum	Age	Gender	PressedTask	Block Type	Block Repeat Num	Response Rate	Onset	Block	Trial	ImgType	ImgNum	RT	PressedC	FrameC
9	42	16	6	3	1	75	10	1	1	6	5	477.78	49	8
9	42	16	6	3	1	75	10	1	2	6	10	393.16	49	8
9	42	16	6	3	1	75	10	1	2	6	10	612.4	49	13
9	42	16	6	3	1	75	10	1	3	6	4	410.54	49	9
9	42	16	6	3	1	75	10	1	4	6	9	537.18	49	11
9	42	16	6	3	1	75	10	1	5	16	7	0	-1	16
9	42	16	6	3	1	75	10	1	6	6	2	582.01	49	12
9	42	16	6	3	1	75	10	1	7	6	3	673.49	49	14
9	42	16	6	3	1	75	10	1	8	16	9	13.38	49	1
9	42	16	6	3	1	75	10	1	9	6	8	588.13	49	12
9	42	16	6	3	1	75	10	1	10	16	2	0	-1	16
9	42	16	6	3	1	75	10	1	11	6	7	585.21	49	12
9	42	16	6	3	1	75	10	1	12	6	6	639.8	49	13
9	42	16	6	3	1	75	10	1	13	6	1	7.95	49	1
9	42	16	6	3	1	75	10	1	13	6	1	739.19	49	15
9	42	16	6	3	1	75	10	1	14	16	5	8.21	49	1
9	42	16	6	3	1	75	10	1	15	6	5	474.29	49	10
9	42	16	6	3	1	75	10	1	16	6	2	0	-1	16
9	42	16	6	3	1	75	10	1	17	6	4	11.64	49	1
9	42	16	6	3	1	75	10	1	17	6	4	782.19	49	16
9	42	16	6	3	1	75	10	1	18	6	9	11.34	49	1
9	42	16	6	3	1	75	10	1	18	6	9	768.13	49	16
9	42	16	6	3	1	75	10	1	19	6	10	11.87	49	1
9	42	16	6	3	1	75	10	1	19	6	10	720.25	49	15
9	42	16	6	3	1	75	10	1	20	16	1	11.2	49	1
9	42	16	6	3	1	75	10	1	21	6	3	526.93	49	11
9	42	16	6	3	1	75	10	1	22	16	10	0	-1	16
9	42	16	6	3	1	75	10	1	23	6	7	511.02	49	11
9	42	16	6	3	1	75	10	1	24	16	4	560.5	49	12
9	42	16	6	3	1	75	10	1	25	6	8	626.06	49	13
9	42	16	6	3	1	75	10	1	26	16	3	8.93	49	1
9	42	16	6	3	1	75	10	1	27	6	6	531.97	49	11
9	42	16	6	3	1	75	10	1	28	6	1	580.82	49	12
9	42	16	6	3	1	75	10	1	29	6	6	666.19	49	14
9	42	16	6	3	1	75	10	1	30	6	1	9.28	49	1
9	42	16	6	3	1	75	10	1	31	16	6	39.25	49	1
9	42	16	6	3	1	75	10	1	32	6	9	560.97	49	12
9	42	16	6	3	1	75	10	1	33	6	8	740.62	49	15
9	42	16	6	3	1	75	10	1	34	6	10	11.31	49	1
9	42	16	6	3	1	75	10	1	34	6	10	710.2	49	15
9	42	16	6	3	1	75	10	1	35	16	8	9.83	49	1
9	42	16	6	3	1	75	10	1	35	16	8	708.97	49	15
9	42	16	6	3	1	75	10	1	36	6	7	8.46	49	1
9	42	16	6	3	1	75	10	1	36	6	7	662.35	49	14
9	42	16	6	3	1	75	10	1	37	6	4	8.77	49	1
9	42	16	6	3	1	75	10	1	37	6	4	676.73	49	14
9	42	16	6	3	1	75	10	1	38	6	2	8.97	49	1
9	42	16	6	3	1	75	10	1	38	6	2	710.46	49	15
9	42	16	6	3	1	75	10	1	39	6	5	11.21	49	1
9	42	16	6	3	1	75	10	1	39	6	5	769.61	49	16
9	42	16	6	3	1	75	10	1	40	16	7	14.4	49	1
9	42	16	6	3	1	75	10	1	41	16	4	688.05	49	14
9	42	16	6	3	1	75	10	1	42	6	3	11.36	49	1
9	42	16	6	3	1	75	10	1	42	6	3	641.28	49	13
9	42	16	6	3	1	75	10	1	43	6	7	11.34	49	1
9	42	16	6	3	1	75	10	1	44	6	5	110.46	49	3
9	42	16	6	3	1	75	10	1	44	6	5	710.81	49	15
9	42	16	6	3	1	75	10	1	45	6	2	11.27	49	1
9	42	16	6	3	1	75	10	1	45	6	2	686.84	49	14
9	42	16	6	3	1	75	10	1	46	6	1	8.58	49	1
9	42	16	6	3	1	75	10	1	46	6	1	708.07	49	15
9	42	16	6	3	1	75	10	1	47	6	9	9.16	49	1
9	42	16	6	3	1	75	10	1	47	6	9	708.18	49	15
9	42	16	6	3	1	75	10	1	48	6	4	8.41	49	1
9	42	16	6	3	1	75	10	1	48	6	4	765.62	49	16
9	42	16	6	3	1	75	10	1	49	16	5	9.41	49	1
9	42	16	6	3	1	75	10	1	50	16	1	485.59	49	10
9	42	16	6	3	1	75	10	1	51	6	10	714.53	49	15
9	42	16	6	3	1	75	10	1	52	6	6	13.83	49	1
9	42	16	6	3	1	75	10	1	52	6	6	729.05	49	15
9	42	16	6	3	1	75	10	1	53	6	3	12.56	49	1
9	42	16	6	3	1	75	10	1	54	6	8	89.94	49	2
9	42	16	6	3	1	75	10	1	55	16	2	111.2	49	3
9	42	16	6	3	1	75	10	1	56	6	2	609.58	49	13
9	42	16	6	3	1	75	10	1	57	6	10	612.79	49	13
9	42	16	6	3	1	75	10	1	58	6	9	684.19	49	14
9	42	16	6	3	1	75	10	1	59	16	10	11.42	49	1
9	42	16	6	3	1	75	10	1	60	6	1	19.25	49	1
9	42	16	6	3	1	75	10	1	60	6	1	644.56	49	13
9	42	16	6	3	1	75	10	1	61	6	8	8.16	49	1
9	42	16	6	3	1	75	10	1	62	6	3	58.12	49	2
9	42	16	6	3	1	75	10	1	62	6	3	529.51	49	11
9	42	16	6	3	1	75	10	1	63	6	6	480.11	49	10
9	42	16	6	3	1	75	10	1	64	6	5	594.2	49	12
9	42	16	6	3	1	75	10	1	65	6	7	664.44	49	14
9	42	16	6	3	1	75	10	1	66	6	4	13.76	49	1
9	42	16	6	3	1	75	10	1	67	6	7	40.63	49	1
9	42	16	6	3	1	75	10	1	67	6	7	262.03	49	6
9	42	16	6	3	1	75	10	1	68	6	4	11.64	49	1
9	42	16	6	3	1	75	10	1	69	6	10	66.71	49	2
9	42	16	6	3	1	75	10	1	70	6	2	218.39	49	5
9	42	16	6	3	1	75	10	1	71	6	1	57.71	49	2
9	42	16	6	3	1	75	10	1	72	6	9	81.74	49	2
9	42	16	6	3	1	75	10	1	73	6	5	57.48	49	2
9	42	16	6	3	1	75	10	1	74	6	6	80.05	49	2
9	42	16	6	3	1	75	10	1	75	6	3	9.5	49	1
9	42	16	6	3	1	75	10	1	76	6	8	17.56	49	1
9	42	16	6	3	1	75	10	1	76	6	8	792.85	49	16
9	42	16	6	3	1	75	10	1	77	6	5	11.17	49	1
9	42	16	6	3	1	75	10	1	77	6	5	763.75	49	16
9	42	16	6	3	1	75	10	1	78	16	9	11.11	49	1
9	42	16	6	3	1	75	10	1	79	16	6	10.87	49	1
9	42	16	6	3	1	75	10	1	80	16	3	0	-1	16
9	42	16	6	3	1	75	10	1	81	16	8	541.9	49	11
9	42	16	6	3	1	75	10	1	82	6	4	561.69	49	12
9	42	16	6	3	1	75	10	1	83	16	7	0	-1	16
9	42	16	6	3	1	75	10	1	84	6	10	571.43	49	12
9	42	16	6	3	1	75	10	1	85	6	2	741.32	49	15
9	42	16	6	3	1	75	10	1	86	6	9	8.34	49	1
9	42	16	6	3	1	75	10	1	86	6	9	765.53	49	16
9	42	16	6	3	1	75	10	1	87	6	7	12.19	49	1
9	42	16	6	3	1	75	10	1	87	6	7	257.42	49	6
9	42	16	6	3	1	75	10	1	87	6	7	729.5	49	15
9	42	16	6	3	1	75	10	1	88	6	8	11.69	49	1
9	42	16	6	3	1	75	10	1	88	6	8	258.42	49	6
9	42	16	6	3	1	75	10	1	89	6	6	22.19	49	1
9	42	16	6	3	1	75	10	1	90	6	3	110.58	49	3
9	42	16	6	3	1	75	10	1	91	6	1	691.24	49	14
9	42	16	6	3	1	75	10	1	92	6	7	11.46	49	1
9	42	16	6	3	1	75	10	1	93	16	9	19.85	49	1
9	42	16	6	3	1	75	10	1	94	6	5	457.63	49	10
9	42	16	6	3	1	75	10	1	95	6	2	528.72	49	11
9	42	16	6	3	1	75	10	1	96	6	1	633.33	49	13
9	42	16	6	3	1	75	10	1	97	6	9	8	49	1
9	42	16	6	3	1	75	10	1	97	6	9	742.08	49	15
9	42	16	6	3	1	75	10	1	98	16	2	11.82	49	1
9	42	16	6	3	1	75	10	1	99	6	4	390.78	49	8
9	42	16	6	3	1	75	10	1	99	6	4	608.76	49	13
9	42	16	6	3	1	75	10	1	100	16	4	408.21	49	9
9	42	16	6	3	1	75	10	1	100	16	4	609.08	49	13
9	42	16	6	3	1	75	10	1	101	6	10	610.76	49	13
9	42	16	6	3	1	75	10	1	102	6	3	580.04	49	12
9	42	16	6	3	1	75	10	1	103	6	6	540.46	49	11
9	42	16	6	3	1	75	10	1	104	6	8	0	-1	16
9	42	16	6	3	1	75	10	1	105	6	5	60.35	49	2
9	42	16	6	3	1	75	10	1	105	6	5	714.11	49	15
9	42	16	6	3	1	75	10	1	106	6	9	14.49	49	1
9	42	16	6	3	1	75	10	1	106	6	9	688.77	49	14
9	42	16	6	3	1	75	10	1	107	16	10	8.29	49	1
9	42	16	6	3	1	75	10	1	108	6	4	118.58	49	3
9	42	16	6	3	1	75	10	1	109	16	1	143.35	49	3
9	42	16	6	3	1	75	10	1	110	6	2	640.8	49	13
9	42	16	6	3	1	75	10	1	111	6	10	8.49	49	1
9	42	16	6	3	1	75	10	1	112	6	6	285.36	49	6
9	42	16	6	3	1	75	10	1	113	16	5	0	-1	16
9	42	16	6	3	1	75	10	1	114	6	3	317	49	7
9	42	16	6	3	1	75	10	1	115	6	7	729.58	49	15
9	42	16	6	3	1	75	10	1	116	16	3	10.5	49	1
9	42	16	6	3	1	75	10	1	117	16	6	0	-1	16
9	42	16	6	3	1	75	10	1	118	16	8	0	-1	16
9	42	16	6	3	1	75	10	1	119	6	8	759.74	49	16
9	42	16	6	3	1	75	10	1	120	6	1	8.28	49	1
9	42	16	6	3	1	75	10	1	121	16	5	8.23	49	1
9	42	16	6	3	1	75	10	1	122	6	5	534.26	49	11
9	42	16	6	3	1	75	10	1	123	6	2	657.98	49	14
9	42	16	6	3	1	75	10	1	124	16	4	10.72	49	1
9	42	16	6	3	1	75	10	1	125	16	9	635.03	49	13
9	42	16	6	3	1	75	10	1	126	16	10	587.17	49	12
9	42	16	6	3	1	75	10	1	127	6	10	524.72	49	11
9	42	16	6	3	1	75	10	1	128	16	2	0	-1	16
9	42	16	6	3	1	75	10	1	129	16	6	0	-1	16
9	42	16	6	3	1	75	10	1	130	16	8	0	-1	16
9	42	16	6	3	1	75	10	1	131	16	7	0	-1	16
9	42	16	6	3	1	75	10	1	132	6	9	382.79	49	8
9	42	16	6	3	1	75	10	1	132	6	9	607.4	49	13
9	42	16	6	3	1	75	10	1	133	6	4	658.03	49	14
9	42	16	6	3	1	75	10	1	134	6	8	8.56	49	1
9	42	16	6	3	1	75	10	1	134	6	8	713.64	49	15
9	42	16	6	3	1	75	10	1	135	6	7	8.44	49	1
9	42	16	6	3	1	75	10	1	135	6	7	727.4	49	15
9	42	16	6	3	1	75	10	1	136	6	3	9.65	49	1
9	42	16	6	3	1	75	10	1	136	6	3	617.68	49	13
9	42	16	6	3	1	75	10	1	137	6	6	11.03	49	1
9	42	16	6	3	1	75	10	1	137	6	6	640.65	49	13
9	42	16	6	3	1	75	10	1	138	6	1	10.41	49	1
9	42	16	6	3	1	75	10	1	138	6	1	679.73	49	14
9	42	16	6	3	1	75	10	1	139	16	3	11.82	49	1
9	42	16	6	3	1	75	10	1	140	16	1	532.25	49	11
9	42	16	6	3	1	75	10	1	141	16	6	0	-1	16
9	42	16	6	3	1	75	10	1	142	6	7	721.92	49	15
9	42	16	6	3	1	75	10	1	143	6	2	8.49	49	1
9	42	16	6	3	1	75	10	1	144	16	10	37.1	49	1
9	42	16	6	3	1	75	10	1	145	6	10	557.93	49	12
9	42	16	6	3	1	75	10	1	146	6	4	560.56	49	12
9	42	16	6	3	1	75	10	1	147	6	5	709.94	49	15
9	42	16	6	3	1	75	10	1	148	6	1	9.29	49	1
9	42	16	6	3	1	75	10	1	148	6	1	631.07	49	13
9	42	16	6	3	1	75	10	1	149	6	9	711.67	49	15
9	42	16	6	3	1	75	10	1	150	6	6	11.64	49	1
9	42	16	6	3	1	75	10	1	150	6	6	719.1	49	15
9	42	16	6	3	1	75	10	1	151	6	3	11.19	49	1
9	42	16	6	3	1	75	10	1	151	6	3	710.6	49	15
9	42	16	6	3	1	75	10	1	152	6	8	10.56	49	1
9	42	16	6	3	1	75	10	1	153	6	7	616.55	49	13
9	42	16	6	3	1	75	10	1	154	6	9	724.53	49	15
9	42	16	6	3	1	75	10	1	155	6	4	8.71	49	1
9	42	16	6	3	1	75	10	1	156	6	2	190.98	49	4
9	42	16	6	3	1	75	10	1	157	6	10	33.1	49	1
9	42	16	6	3	1	75	10	1	157	6	10	793.14	49	16
9	42	16	6	3	1	75	10	1	158	6	5	9.33	49	1
9	42	16	6	3	1	75	10	1	158	6	5	708.46	49	15
9	42	16	6	3	1	75	10	1	159	6	1	8.61	49	1
9	42	16	6	3	1	75	10	1	159	6	1	729.62	49	15
9	42	16	6	3	1	75	10	1	160	6	3	13.85	49	1
9	42	16	6	3	1	75	10	1	160	6	3	778.74	49	16
9	42	16	6	3	1	75	10	1	161	16	4	11.33	49	1
9	42	16	6	3	1	75	10	1	162	6	6	661.19	49	14
9	42	16	6	3	1	75	10	1	163	16	8	10.78	49	1
9	42	16	6	3	1	75	10	1	163	16	8	787.89	49	16
9	42	16	6	3	1	75	10	1	164	6	8	10.56	49	1
9	42	16	6	3	1	75	10	1	164	6	8	711.08	49	15
9	42	16	6	3	1	75	10	1	165	6	6	9.73	49	1
9	42	16	6	3	1	75	10	1	165	6	6	724.22	49	15
9	42	16	6	3	1	75	10	1	166	16	7	9.56	49	1
9	42	16	6	3	1	75	10	1	167	6	4	611.12	49	13
9	42	16	6	3	1	75	10	1	168	6	5	741.93	49	15
9	42	16	6	3	1	75	10	1	169	6	10	8.83	49	1
9	42	16	6	3	1	75	10	1	170	6	9	58.61	49	2
9	42	16	6	3	1	75	10	1	171	6	7	10.44	49	1
9	42	16	6	3	1	75	10	1	171	6	7	769.43	49	16
9	42	16	6	3	1	75	10	1	172	16	5	11.49	49	1
9	42	16	6	3	1	75	10	1	173	6	2	693.09	49	14
9	42	16	6	3	1	75	10	1	174	16	2	11.62	49	1
9	42	16	6	3	1	75	10	1	175	6	1	662.4	49	14
9	42	16	6	3	1	75	10	1	176	6	8	11.31	49	1
9	42	16	6	3	1	75	10	1	176	6	8	780.67	49	16
9	42	16	6	3	1	75	10	1	177	6	3	10.3	49	1
9	42	16	6	3	1	75	10	1	178	6	5	30.16	49	1
9	42	16	6	3	1	75	10	1	178	6	5	658.44	49	14
9	42	16	6	3	1	75	10	1	179	6	4	8.19	49	1
9	42	16	6	3	1	75	10	1	179	6	4	688.46	49	14
9	42	16	6	3	1	75	10	1	180	6	2	10.96	49	1
9	42	16	6	3	1	75	10	1	180	6	2	716.62	49	15
9	42	16	6	3	1	75	10	1	181	6	10	9.34	49	1
9	42	16	6	3	1	75	10	1	181	6	10	763.62	49	16
9	42	16	6	3	1	75	10	1	182	6	9	9.65	49	1
9	42	16	6	3	1	75	10	1	182	6	9	733.03	49	15
9	42	16	6	3	1	75	10	1	183	6	6	8.94	49	1
9	42	16	6	3	1	75	10	1	183	6	6	766.3	49	16
9	42	16	6	3	1	75	10	1	184	16	9	10.95	49	1
9	42	16	6	3	1	75	10	1	185	16	1	160.35	49	4
9	42	16	6	3	1	75	10	1	186	6	8	0	-1	16
9	42	16	6	3	1	75	10	1	187	6	7	26.67	49	1
9	42	16	6	3	1	75	10	1	187	6	7	711.51	49	15
9	42	16	6	3	1	75	10	1	188	6	3	10.91	49	1
9	42	16	6	3	1	75	10	1	189	6	1	221.13	49	5
9	42	16	6	3	1	75	10	1	190	6	6	64.49	49	2
9	42	16	6	3	1	75	10	1	190	6	6	719.7	49	15
9	42	16	6	3	1	75	10	1	191	16	3	8.61	49	1
9	42	16	6	3	1	75	10	1	192	6	4	557.43	49	12
9	42	16	6	3	1	75	10	1	193	6	1	740.97	49	15
9	42	16	6	3	1	75	10	1	194	6	2	11.03	49	1
9	42	16	6	3	1	75	10	1	194	6	2	718.12	49	15
9	42	16	6	3	1	75	10	1	195	16	6	9.26	49	1
9	42	16	6	3	1	75	10	1	195	16	6	714.09	49	15
9	42	16	6	3	1	75	10	1	196	6	5	11.47	49	1
9	42	16	6	3	1	75	10	1	196	6	5	587.27	49	12
9	42	16	6	3	1	75	10	1	197	6	9	610.8	49	13
9	42	16	6	3	1	75	10	1	198	16	8	0	-1	16
9	42	16	6	3	1	75	10	1	199	16	10	0	-1	16
9	42	16	6	3	1	75	10	1	200	6	10	644.39	49	13
9	42	16	6	3	1	75	10	1	201	6	7	8.58	49	1
9	42	16	6	3	1	75	10	1	201	6	7	658.02	49	14
9	42	16	6	3	1	75	10	1	202	6	8	7.91	49	1
9	42	16	6	3	1	75	10	1	202	6	8	738.64	49	15
9	42	16	6	3	1	75	10	1	203	16	2	9.12	49	1
9	42	16	6	3	1	75	10	1	204	6	3	681.54	49	14
9	42	16	6	3	1	75	10	1	205	16	7	8.2	49	1
9	42	16	6	3	1	75	10	1	206	6	7	707.51	49	15
9	42	16	6	3	1	75	10	1	207	6	1	8.82	49	1
9	42	16	6	3	1	75	10	1	208	6	5	410.63	49	9
9	42	16	6	3	1	75	10	1	209	16	1	567.94	49	12
9	42	16	6	3	1	75	10	1	210	6	10	0	-1	16
9	42	16	6	3	1	75	10	1	211	6	4	62.2	49	2
9	42	16	6	3	1	75	10	1	211	6	4	637.78	49	13
9	42	16	6	3	1	75	10	1	212	16	4	0	-1	16
9	42	16	6	3	1	75	10	1	213	6	2	610.62	49	13
9	42	16	6	3	1	75	10	1	214	6	9	643	49	13
9	42	16	6	3	1	75	10	1	215	16	5	0	-1	16
9	42	16	6	3	1	75	10	1	216	6	3	474.27	49	10
9	42	16	6	3	1	75	10	1	217	6	6	565.47	49	12
9	42	16	6	3	1	75	10	1	218	6	8	0	-1	16
9	42	16	6	3	1	75	10	1	219	6	6	293.6	49	6
9	42	16	6	3	1	75	10	1	220	6	4	0	-1	16
9	42	16	6	3	1	75	10	1	221	16	9	33.23	49	1
9	42	16	6	3	1	75	10	1	222	6	9	540.18	49	11
9	42	16	6	3	1	75	10	1	223	6	10	0	-1	16
9	42	16	6	3	1	75	10	1	224	6	1	10.79	49	1
9	42	16	6	3	1	75	10	1	224	6	1	762.31	49	16
9	42	16	6	3	1	75	10	1	225	16	3	10.52	49	1
9	42	16	6	3	1	75	10	1	226	6	2	637	49	13
9	42	16	6	3	1	75	10	1	227	6	7	0	-1	16
9	42	16	6	3	1	75	10	1	228	6	5	9.2	49	1
9	42	16	6	3	1	75	10	1	229	6	8	8.42	49	1
9	42	16	6	3	1	75	10	1	230	6	3	107.26	49	3
9	42	16	6	3	1	75	10	1	230	6	3	307.38	49	7
9	42	16	6	3	1	75	10	1	231	6	6	8.75	49	1
9	42	16	6	3	1	75	10	1	231	6	6	775.27	49	16
9	42	16	6	3	1	75	10	1	232	16	6	9.97	49	1
9	42	16	6	3	1	75	10	1	233	16	7	580.34	49	12
9	42	16	6	3	1	75	10	1	234	6	5	528.46	49	11
9	42	16	6	3	1	75	10	1	235	6	7	783.6	49	16
9	42	16	6	3	1	75	10	1	236	16	8	10.9	49	1
9	42	16	6	3	1	75	10	1	237	6	1	572.91	49	12
9	42	16	6	3	1	75	10	1	238	6	2	0	-1	16
9	42	16	6	3	1	75	10	1	239	6	8	85.04	49	2
9	42	16	6	3	1	75	10	1	240	6	4	134.1	49	3
9	42	16	6	3	1	75	10	1	240	6	4	715.52	49	15
9	42	16	6	3	1	75	10	1	241	6	9	8.51	49	1
9	42	16	6	3	1	75	10	1	241	6	9	663.73	49	14
9	42	16	6	3	1	75	10	1	242	6	10	8.51	49	1
9	42	16	6	3	1	75	10	1	242	6	10	685.2	49	14
9	42	16	6	3	1	75	10	1	243	6	3	8.67	49	1
9	42	16	6	3	1	75	10	1	243	6	3	667.43	49	14
9	42	16	6	3	1	75	10	1	244	16	5	10.2	49	1
9	42	16	6	3	1	75	10	1	245	6	7	759.95	49	16
9	42	16	6	3	1	75	10	1	246	6	10	11.66	49	1
9	42	16	6	3	1	75	10	1	247	6	4	21.02	49	1
9	42	16	6	3	1	75	10	1	247	6	4	661.07	49	14
9	42	16	6	3	1	75	10	1	248	6	2	12.8	49	1
9	42	16	6	3	1	75	10	1	248	6	2	741.54	49	15
9	42	16	6	3	1	75	10	1	249	6	5	11.32	49	1
9	42	16	6	3	1	75	10	1	249	6	5	676.08	49	14
9	42	16	6	3	1	75	10	1	250	16	2	8.91	49	1
9	42	16	6	3	1	75	10	1	251	16	1	607.71	49	13
9	42	16	6	3	1	75	10	1	252	6	1	587.34	49	12
9	42	16	6	3	1	75	10	1	253	16	4	0	-1	16
9	42	16	6	3	1	75	10	1	254	6	9	684.05	49	14
9	42	16	6	3	1	75	10	1	255	6	6	8.96	49	1
9	42	16	6	3	1	75	10	1	255	6	6	620.5	49	13
9	42	16	6	3	1	75	10	1	256	6	3	771.11	49	16
9	42	16	6	3	1	75	10	1	257	6	8	13.3	49	1
9	42	16	6	3	1	75	10	1	258	6	6	138.18	49	3
9	42	16	6	3	1	75	10	1	259	6	2	13.12	49	1
9	42	16	6	3	1	75	10	1	260	6	7	0	-1	16
9	42	16	6	3	1	75	10	1	261	16	9	10.36	49	1
9	42	16	6	3	1	75	10	1	262	6	8	9.47	49	1
9	42	16	6	3	1	75	10	1	262	6	8	609.15	49	13
9	42	16	6	3	1	75	10	1	263	6	5	661.51	49	14
9	42	16	6	3	1	75	10	1	264	6	9	11.38	49	1
9	42	16	6	3	1	75	10	1	264	6	9	723.08	49	15
9	42	16	6	3	1	75	10	1	265	16	10	9.27	49	1
9	42	16	6	3	1	75	10	1	266	6	1	579.91	49	12
9	42	16	6	3	1	75	10	1	267	6	4	660.74	49	14
9	42	16	6	3	1	75	10	1	268	6	10	10.64	49	1
9	42	16	6	3	1	75	10	1	268	6	10	789.75	49	16
9	42	16	6	3	1	75	10	1	269	16	3	11.65	49	1
9	42	16	6	3	1	75	10	1	270	6	3	31.19	49	1
9	42	16	6	3	1	75	10	1	270	6	3	567.99	49	12
9	42	16	6	3	1	75	10	1	271	16	7	0	-1	16
9	42	16	6	3	1	75	10	1	272	6	6	164.38	49	4
9	42	16	6	3	1	75	10	1	273	16	1	143.12	49	3
9	42	16	6	3	1	75	10	1	274	6	8	210.33	49	5
9	42	16	6	3	1	75	10	1	275	6	4	360.29	49	8
9	42	16	6	3	1	75	10	1	276	16	10	444.93	49	9
9	42	16	6	3	1	75	10	1	277	6	10	644.33	49	13
9	42	16	6	3	1	75	10	1	278	6	2	7.96	49	1
9	42	16	6	3	1	75	10	1	279	6	9	60.82	49	2
9	42	16	6	3	1	75	10	1	280	6	1	161.28	49	4
9	42	16	6	3	1	75	10	1	281	6	5	128.01	49	3
9	42	16	6	3	1	75	10	1	281	6	5	738.13	49	15
9	42	16	6	3	1	75	10	1	282	6	7	11.66	49	1
9	42	16	6	3	1	75	10	1	282	6	7	712.94	49	15
9	42	16	6	3	1	75	10	1	283	6	3	12.72	49	1
9	42	16	6	3	1	75	10	1	283	6	3	660.49	49	14
9	42	16	6	3	1	75	10	1	284	6	2	9.84	49	1
9	42	16	6	3	1	75	10	1	284	6	2	615.72	49	13
9	42	16	6	3	1	75	10	1	285	6	10	0	-1	16
9	42	16	6	3	1	75	10	1	286	6	9	21.31	49	1
9	42	16	6	3	1	75	10	1	286	6	9	692.47	49	14
9	42	16	6	3	1	75	10	1	287	6	8	10.39	49	1
9	42	16	6	3	1	75	10	1	288	16	9	137.33	49	3
9	42	16	6	3	1	75	10	1	289	6	5	570.41	49	12
9	42	16	6	3	1	75	10	1	290	6	1	0	-1	16
9	42	16	6	3	1	75	10	1	291	6	7	193.85	49	4
9	42	16	6	3	1	75	10	1	292	16	2	227.93	49	5
9	42	16	6	3	1	75	10	1	293	6	3	724.05	49	15
9	42	16	6	3	1	75	10	1	294	6	6	10.98	49	1
9	42	16	6	3	1	75	10	1	295	6	4	409.85	49	9
9	42	16	6	3	1	75	10	1	296	16	5	391.61	49	8
9	42	16	6	3	1	75	10	1	296	16	5	608.55	49	13
9	42	16	6	3	1	75	10	1	297	16	4	540.62	49	11
9	42	16	6	3	1	75	10	1	297	16	4	759.9	49	16
9	42	16	6	3	1	75	10	1	298	6	2	678.26	49	14
9	42	16	6	3	1	75	10	1	299	6	9	8.26	49	1
9	42	16	6	3	1	75	10	1	299	6	9	707.61	49	15
9	42	16	6	3	1	75	10	1	300	6	10	8.23	49	1
9	42	16	6	3	1	75	10	1	300	6	10	779.95	49	16
9	42	16	6	3	1	75	10	1	301	16	6	8.61	49	1
9	42	16	6	3	1	75	10	1	302	6	1	561.37	49	12
9	42	16	6	3	1	75	10	1	303	6	8	661.09	49	14
9	42	16	6	3	1	75	10	1	304	16	3	11.09	49	1
9	42	16	6	3	1	75	10	1	305	6	6	588.08	49	12
9	42	16	6	3	1	75	10	1	306	16	8	12.45	49	1
9	42	16	6	3	1	75	10	1	307	6	7	716.22	49	15
9	42	16	6	3	1	75	10	1	308	6	3	10.23	49	1
9	42	16	6	3	1	75	10	1	309	16	7	561.78	49	12
9	42	16	6	3	1	75	10	1	310	16	1	0	-1	16
9	42	16	6	3	1	75	10	1	311	6	5	10.44	49	1
9	42	16	6	3	1	75	10	1	312	6	4	35.52	49	1
9	42	16	6	3	1	75	10	1	312	6	4	687.31	49	14
9	42	16	6	3	1	75	10	1	313	6	7	8.26	49	1
9	42	16	6	3	1	75	10	1	313	6	7	715.38	49	15
9	42	16	6	3	1	75	10	1	314	16	9	8.42	49	1
9	42	16	6	3	1	75	10	1	315	6	9	632.15	49	13
9	42	16	6	3	1	75	10	1	316	16	4	11.2	49	1
9	42	16	6	3	1	75	10	1	317	6	2	711.59	49	15
9	42	16	6	3	1	75	10	1	318	6	4	13.42	49	1
9	42	16	6	3	1	75	10	1	318	6	4	582.28	49	12
9	42	16	6	3	1	75	10	1	319	16	5	0	-1	16
9	42	16	6	3	1	75	10	1	320	6	5	565.73	49	12
9	42	16	6	3	1	75	10	1	321	6	1	564.8	49	12
9	42	16	6	3	1	75	10	1	322	6	10	677.58	49	14
9	42	16	6	3	1	75	10	1	323	16	10	8.7	49	1
9	42	16	6	3	1	75	10	1	324	16	2	696.98	49	14
9	42	16	6	3	1	75	10	1	325	6	6	7.79	49	1
9	42	16	6	3	1	75	10	1	325	6	6	545.5	49	11
9	42	16	6	3	1	75	10	1	326	6	3	0	-1	16
9	42	16	6	3	1	75	10	1	327	6	8	218.2	49	5
9	42	16	6	3	1	75	10	1	328	6	5	193.21	49	4
9	42	16	6	3	1	75	10	1	328	6	5	773.54	49	16
9	42	16	6	3	1	75	10	1	329	6	10	12.46	49	1
9	42	16	6	3	1	75	10	1	329	6	10	582.01	49	12
9	42	16	6	3	1	75	10	1	330	6	4	491.87	49	10
9	42	16	6	3	1	75	10	1	331	6	9	0	-1	16
9	42	16	6	3	1	75	10	1	332	6	2	10.07	49	1
9	42	16	6	3	1	75	10	1	332	6	2	763.57	49	16
9	42	16	6	3	1	75	10	1	333	6	8	8.63	49	1
9	42	16	6	3	1	75	10	1	333	6	8	795.01	49	16
9	42	16	6	3	1	75	10	1	334	6	7	8.99	49	1
9	42	16	6	3	1	75	10	1	334	6	7	575.76	49	12
9	42	16	6	3	1	75	10	1	335	6	3	482.85	49	10
9	42	16	6	3	1	75	10	1	336	6	6	558.59	49	12
9	42	16	6	3	1	75	10	1	337	6	1	580.46	49	12
9	42	16	6	3	1	75	10	1	338	6	7	660.09	49	14
9	42	16	6	3	1	75	10	1	339	6	9	10.16	49	1
9	42	16	6	3	1	75	10	1	339	6	9	729.09	49	15
9	42	16	6	3	1	75	10	1	340	6	4	12.06	49	1
9	42	16	6	3	1	75	10	1	340	6	4	730.51	49	15
9	42	16	6	3	1	75	10	1	341	6	10	11.03	49	1
9	42	16	6	3	1	75	10	1	341	6	10	772.89	49	16
9	42	16	6	3	1	75	10	1	342	6	5	10.72	49	1
9	42	16	6	3	1	75	10	1	342	6	5	709.05	49	15
9	42	16	6	3	1	75	10	1	343	16	6	8.93	49	1
9	42	16	6	3	1	75	10	1	344	16	3	0	-1	16
9	42	16	6	3	1	75	10	1	345	16	8	570.38	49	12
9	42	16	6	3	1	75	10	1	346	6	2	0	-1	16
9	42	16	6	3	1	75	10	1	347	16	2	0	-1	16
9	42	16	6	3	1	75	10	1	348	6	1	0	-1	16
9	42	16	6	3	1	75	10	1	349	6	3	319.03	49	7
9	42	16	6	3	1	75	10	1	350	6	6	565.04	49	12
9	42	16	6	3	1	75	10	1	351	6	8	664.99	49	14
9	42	16	6	3	1	75	10	1	352	6	2	12.07	49	1
9	42	16	6	3	1	75	10	1	353	6	9	33.8	49	1
9	42	16	6	3	1	75	10	1	353	6	9	260.22	49	6
9	42	16	6	3	1	75	10	1	353	6	9	786.62	49	16
9	42	16	6	3	1	75	10	1	354	6	10	11.53	49	1
9	42	16	6	3	1	75	10	1	355	6	7	109.35	49	3
9	42	16	6	3	1	75	10	1	356	16	9	91.27	49	2
9	42	16	6	3	1	75	10	1	357	6	1	533.86	49	11
9	42	16	6	3	1	75	10	1	358	6	6	769.01	49	16
9	42	16	6	3	1	75	10	1	359	6	5	8.24	49	1
9	42	16	6	3	1	75	10	1	359	6	5	758.06	49	16
9	42	16	6	3	1	75	10	1	360	6	8	8.31	49	1
9	42	16	6	3	1	75	10	1	360	6	8	723.56	49	15
9	42	16	6	3	1	75	10	1	361	6	3	11.09	49	1
9	42	16	6	3	1	75	10	1	361	6	3	713.58	49	15
9	42	16	6	3	1	75	10	1	362	6	4	8.94	49	1
9	42	16	6	3	1	75	10	1	362	6	4	620.59	49	13
9	42	16	6	3	1	75	10	1	363	6	5	10.83	49	1
9	42	16	6	3	1	75	10	1	363	6	5	562.33	49	12
9	42	16	6	3	1	75	10	1	364	6	2	775.85	49	16
9	42	16	6	3	1	75	10	1	365	16	10	13.27	49	1
9	42	16	6	3	1	75	10	1	365	16	10	731.31	49	15
9	42	16	6	3	1	75	10	1	366	6	10	11.55	49	1
9	42	16	6	3	1	75	10	1	366	6	10	673.06	49	14
9	42	16	6	3	1	75	10	1	367	6	9	12.04	49	1
9	42	16	6	3	1	75	10	1	367	6	9	619.51	49	13
9	42	16	6	3	1	75	10	1	368	6	4	717.24	49	15
9	42	16	6	3	1	75	10	1	369	6	3	8.54	49	1
9	42	16	6	3	1	75	10	1	369	6	3	757.66	49	16
9	42	16	6	3	1	75	10	1	370	6	8	9.85	49	1
9	42	16	6	3	1	75	10	1	370	6	8	639.59	49	13
9	42	16	6	3	1	75	10	1	371	6	7	8.1	49	1
9	42	16	6	3	1	75	10	1	371	6	7	657.8	49	14
9	42	16	6	3	1	75	10	1	372	6	6	8.55	49	1
9	42	16	6	3	1	75	10	1	372	6	6	628.99	49	13
9	42	16	6	3	1	75	10	1	373	6	1	9.52	49	1
9	42	16	6	3	1	75	10	1	373	6	1	579.55	49	12
9	42	16	6	3	1	75	10	1	374	6	2	688.65	49	14
9	42	16	6	3	1	75	10	1	375	6	10	11.27	49	1
9	42	16	6	3	1	75	10	1	375	6	10	661.44	49	14
9	42	16	6	3	1	75	10	1	376	6	9	677.38	49	14
9	42	16	6	3	1	75	10	1	377	6	7	13.19	49	1
9	42	16	6	3	1	75	10	1	377	6	7	724.48	49	15
9	42	16	6	3	1	75	10	1	378	16	7	11.93	49	1
9	42	16	6	3	1	75	10	1	379	16	3	15.15	49	1
9	42	16	6	3	1	75	10	1	379	16	3	590.55	49	12
9	42	16	6	3	1	75	10	1	380	16	5	0	-1	16
9	42	16	6	3	1	75	10	1	381	6	5	586.51	49	12
9	42	16	6	3	1	75	10	1	382	16	6	0	-1	16
9	42	16	6	3	1	75	10	1	383	6	8	485.04	49	10
9	42	16	6	3	1	75	10	1	384	6	1	673.01	49	14
9	42	16	6	3	1	75	10	1	385	6	6	8.23	49	1
9	42	16	6	3	1	75	10	1	385	6	6	695.76	49	14
9	42	16	6	3	1	75	10	1	386	6	3	8.22	49	1
9	42	16	6	3	1	75	10	1	386	6	3	762.41	49	16
9	42	16	6	3	1	75	10	1	387	16	8	11.34	49	1
9	42	16	6	3	1	75	10	1	388	6	4	564.79	49	12
9	42	16	6	3	1	75	10	1	389	6	7	710.65	49	15
9	42	16	6	3	1	75	10	1	390	6	1	10.49	49	1
9	42	16	6	3	1	75	10	1	390	6	1	779.23	49	16
9	42	16	6	3	1	75	10	1	391	6	2	10.62	49	1
9	42	16	6	3	1	75	10	1	391	6	2	759.09	49	16
9	42	16	6	3	1	75	10	1	392	6	5	8.93	49	1
9	42	16	6	3	1	75	10	1	392	6	5	692.85	49	14
9	42	16	6	3	1	75	10	1	393	16	1	9.3	49	1
9	42	16	6	3	1	75	10	1	394	6	10	331.83	49	7
9	42	16	6	3	1	75	10	1	395	16	4	382.25	49	8
9	42	16	6	3	1	75	10	1	396	6	4	145.41	49	3
9	42	16	6	3	1	75	10	1	396	6	4	357.13	49	8
9	42	16	6	3	1	75	10	1	397	6	9	0	-1	16
9	42	16	6	3	1	75	10	1	398	6	6	21.98	49	1
9	42	16	6	3	1	75	10	1	398	6	6	790.22	49	16
9	42	16	6	3	1	75	10	1	399	6	3	11.2	49	1
9	42	16	6	3	1	75	10	1	400	6	8	78.02	49	2
9	42	16	6	3	1	75	10	1	401	16	5	310.27	49	7
9	42	16	6	3	1	75	10	1	402	6	6	0	-1	16
9	42	16	6	3	1	75	10	1	403	16	9	0	-1	16
9	42	16	6	3	1	75	10	1	404	6	10	123.55	49	3
9	42	16	6	3	1	75	10	1	405	6	9	110.14	49	3
9	42	16	6	3	1	75	10	1	406	16	2	8.51	49	1
9	42	16	6	3	1	75	10	1	406	16	2	209.99	49	5
9	42	16	6	3	1	75	10	1	407	16	10	476.62	49	10
9	42	16	6	3	1	75	10	1	408	6	5	361.38	49	8
9	42	16	6	3	1	75	10	1	408	6	5	608.13	49	13
9	42	16	6	3	1	75	10	1	409	16	4	530.61	49	11
9	42	16	6	3	1	75	10	1	410	16	6	0	-1	16
9	42	16	6	3	1	75	10	1	411	6	7	60.25	49	2
9	42	16	6	3	1	75	10	1	412	16	7	0	-1	16
9	42	16	6	3	1	75	10	1	413	6	4	566.54	49	12
9	42	16	6	3	1	75	10	1	414	16	8	0	-1	16
9	42	16	6	3	1	75	10	1	415	6	2	764.79	49	16
9	42	16	6	3	1	75	10	1	416	6	1	10.96	49	1
9	42	16	6	3	1	75	10	1	416	6	1	772.6	49	16
9	42	16	6	3	1	75	10	1	417	6	8	8.07	49	1
9	42	16	6	3	1	75	10	1	418	6	3	11.89	49	1
9	42	16	6	3	1	75	10	1	418	6	3	676.25	49	14
9	42	16	6	3	1	75	10	1	419	6	2	8.36	49	1
9	42	16	6	3	1	75	10	1	419	6	2	681.97	49	14
9	42	16	6	3	1	75	10	1	420	6	10	13.24	49	1
9	42	16	6	3	1	75	10	1	421	16	3	159	49	4
9	42	16	6	3	1	75	10	1	422	6	9	557.98	49	12
9	42	16	6	3	1	75	10	1	423	16	1	716.49	49	15
9	42	16	6	3	1	75	10	1	424	6	7	13.38	49	1
9	42	16	6	3	1	75	10	1	425	6	6	312.72	49	7
9	42	16	6	3	1	75	10	1	426	16	6	210.24	49	5
9	42	16	6	3	1	75	10	1	427	6	5	608.76	49	13
9	42	16	6	3	1	75	10	1	428	16	7	559.73	49	12
9	42	16	6	3	1	75	10	1	429	6	8	578.55	49	12
9	42	16	6	3	1	75	10	1	430	6	1	757.97	49	16
9	42	16	6	3	1	75	10	1	431	16	1	10.79	49	1
9	42	16	6	3	1	75	10	1	432	6	3	180.41	49	4
9	42	16	6	3	1	75	10	1	433	6	4	407.52	49	9
9	42	16	6	3	1	75	10	1	434	6	6	759.42	49	16
9	42	16	6	3	1	75	10	1	435	6	1	11.49	49	1
9	42	16	6	3	1	75	10	1	435	6	1	710.61	49	15
9	42	16	6	3	1	75	10	1	436	6	4	13.43	49	1
9	42	16	6	3	1	75	10	1	436	6	4	710.69	49	15
9	42	16	6	3	1	75	10	1	437	6	10	10.98	49	1
9	42	16	6	3	1	75	10	1	437	6	10	660.23	49	14
9	42	16	6	3	1	75	10	1	438	6	5	692.67	49	14
9	42	16	6	3	1	75	10	1	439	16	10	10.96	49	1
9	42	16	6	3	1	75	10	1	440	6	7	159.25	49	4
9	42	16	6	3	1	75	10	1	441	6	2	93.35	49	2
9	42	16	6	3	1	75	10	1	442	6	9	58.09	49	2
9	42	16	6	3	1	75	10	1	442	6	9	687.2	49	14
9	42	16	6	3	1	75	10	1	443	6	8	8.34	49	1
9	42	16	6	3	1	75	10	1	443	6	8	680.03	49	14
9	42	16	6	3	1	75	10	1	444	6	3	11.56	49	1
9	42	16	6	3	1	75	10	1	444	6	3	676.4	49	14
9	42	16	6	3	1	75	10	1	445	6	5	10.92	49	1
9	42	16	6	3	1	75	10	1	445	6	5	643.71	49	13
9	42	16	6	3	1	75	10	1	446	6	4	660.11	49	14
9	42	16	6	3	1	75	10	1	447	6	9	630.13	49	13
9	42	16	6	3	1	75	10	1	448	6	2	0	-1	16
9	42	16	6	3	1	75	10	1	449	6	10	80.63	49	2
9	42	16	6	3	1	75	10	1	449	6	10	786.22	49	16
9	42	16	6	3	1	75	10	1	450	6	8	11.29	49	1
