SubjectNum	Age	Gender	PressedTask	Block Type	Block Repeat Num	Response Rate	Onset	Block	Trial	ImgType	ImgNum	RT	PressedC	FrameC
9	42	16	6	3	1	75	10	1	1	6	5	548.04	49	10
9	42	16	6	3	1	75	10	1	2	6	10	662.27	49	14
9	42	16	6	3	1	75	10	1	3	6	4	11.88	49	1
9	42	16	6	3	1	75	10	1	3	6	4	668.03	49	14
9	42	16	6	3	1	75	10	1	4	6	9	10.97	49	1
9	42	16	6	3	1	75	10	1	4	6	9	737.12	49	15
9	42	16	6	3	1	75	10	1	5	16	7	13.34	49	1
9	42	16	6	3	1	75	10	1	6	6	2	681.27	49	14
9	42	16	6	3	1	75	10	1	7	6	3	9.78	49	1
9	42	16	6	3	1	75	10	1	8	16	9	58.17	49	2
9	42	16	6	3	1	75	10	1	8	16	9	259.54	49	6
9	42	16	6	3	1	75	10	1	9	6	8	558.08	49	12
9	42	16	6	3	1	75	10	1	9	6	8	761.24	49	16
9	42	16	6	3	1	75	10	1	10	16	2	9.8	49	1
9	42	16	6	3	1	75	10	1	11	6	7	610.73	49	13
9	42	16	6	3	1	75	10	1	12	6	6	14.12	49	1
9	42	16	6	3	1	75	10	1	12	6	6	785.2	49	16
9	42	16	6	3	1	75	10	1	13	6	1	12.06	49	1
9	42	16	6	3	1	75	10	1	14	16	5	63.81	49	2
9	42	16	6	3	1	75	10	1	14	16	5	312.65	49	7
9	42	16	6	3	1	75	10	1	15	6	5	411.39	49	9
9	42	16	6	3	1	75	10	1	16	6	2	609.11	49	13
9	42	16	6	3	1	75	10	1	17	6	4	9.36	49	1
9	42	16	6	3	1	75	10	1	17	6	4	657.99	49	14
9	42	16	6	3	1	75	10	1	18	6	9	8.33	49	1
9	42	16	6	3	1	75	10	1	18	6	9	789.65	49	16
9	42	16	6	3	1	75	10	1	19	6	10	9.95	49	1
9	42	16	6	3	1	75	10	1	20	16	1	79.83	49	2
9	42	16	6	3	1	75	10	1	20	16	1	307.54	49	7
9	42	16	6	3	1	75	10	1	21	6	3	658.09	49	14
9	42	16	6	3	1	75	10	1	22	16	10	10.82	49	1
9	42	16	6	3	1	75	10	1	23	6	7	413.03	49	9
9	42	16	6	3	1	75	10	1	24	16	4	565.35	49	12
9	42	16	6	3	1	75	10	1	25	6	8	10.4	49	1
9	42	16	6	3	1	75	10	1	25	6	8	586.28	49	12
9	42	16	6	3	1	75	10	1	26	16	3	0	-1	16
9	42	16	6	3	1	75	10	1	27	6	6	572.11	49	12
9	42	16	6	3	1	75	10	1	28	6	1	688.21	49	14
9	42	16	6	3	1	75	10	1	29	6	6	10.56	49	1
9	42	16	6	3	1	75	10	1	29	6	6	683.81	49	14
9	42	16	6	3	1	75	10	1	30	6	1	10.08	49	1
9	42	16	6	3	1	75	10	1	31	16	6	137.32	49	3
9	42	16	6	3	1	75	10	1	31	16	6	362.3	49	8
9	42	16	6	3	1	75	10	1	32	6	9	566.41	49	12
9	42	16	6	3	1	75	10	1	33	6	8	760.31	49	16
9	42	16	6	3	1	75	10	1	34	6	10	11.12	49	1
9	42	16	6	3	1	75	10	1	34	6	10	731.89	49	15
9	42	16	6	3	1	75	10	1	35	16	8	12.09	49	1
9	42	16	6	3	1	75	10	1	36	6	7	711.55	49	15
9	42	16	6	3	1	75	10	1	37	6	4	11.36	49	1
9	42	16	6	3	1	75	10	1	37	6	4	774.4	49	16
9	42	16	6	3	1	75	10	1	38	6	2	9.01	49	1
9	42	16	6	3	1	75	10	1	38	6	2	658.06	49	14
9	42	16	6	3	1	75	10	1	39	6	5	8.84	49	1
9	42	16	6	3	1	75	10	1	39	6	5	716.45	49	15
9	42	16	6	3	1	75	10	1	40	16	7	8.56	49	1
9	42	16	6	3	1	75	10	1	41	16	4	617.82	49	13
9	42	16	6	3	1	75	10	1	42	6	3	8.85	49	1
9	42	16	6	3	1	75	10	1	42	6	3	516.95	49	11
9	42	16	6	3	1	75	10	1	42	6	3	760.52	49	16
9	42	16	6	3	1	75	10	1	43	6	7	0	-1	16
9	42	16	6	3	1	75	10	1	44	6	5	158.12	49	4
9	42	16	6	3	1	75	10	1	44	6	5	358.13	49	8
9	42	16	6	3	1	75	10	1	45	6	2	89.86	49	2
9	42	16	6	3	1	75	10	1	45	6	2	309.92	49	7
9	42	16	6	3	1	75	10	1	45	6	2	692.53	49	14
9	42	16	6	3	1	75	10	1	46	6	1	12.69	49	1
9	42	16	6	3	1	75	10	1	46	6	1	713.45	49	15
9	42	16	6	3	1	75	10	1	47	6	9	12.13	49	1
9	42	16	6	3	1	75	10	1	47	6	9	731.08	49	15
9	42	16	6	3	1	75	10	1	48	6	4	11.95	49	1
9	42	16	6	3	1	75	10	1	48	6	4	716.03	49	15
9	42	16	6	3	1	75	10	1	49	16	5	10.33	49	1
9	42	16	6	3	1	75	10	1	49	16	5	760.79	49	16
9	42	16	6	3	1	75	10	1	50	16	1	9.48	49	1
9	42	16	6	3	1	75	10	1	50	16	1	528.84	49	11
9	42	16	6	3	1	75	10	1	50	16	1	761.04	49	16
9	42	16	6	3	1	75	10	1	51	6	10	514.12	49	11
9	42	16	6	3	1	75	10	1	51	6	10	757.97	49	16
9	42	16	6	3	1	75	10	1	52	6	6	568.3	49	12
9	42	16	6	3	1	75	10	1	53	6	3	777.57	49	16
9	42	16	6	3	1	75	10	1	54	6	8	8.95	49	1
9	42	16	6	3	1	75	10	1	54	6	8	495.48	49	10
9	42	16	6	3	1	75	10	1	54	6	8	711.5	49	15
9	42	16	6	3	1	75	10	1	55	16	2	660.34	49	14
9	42	16	6	3	1	75	10	1	56	6	2	9.01	49	1
9	42	16	6	3	1	75	10	1	56	6	2	633.39	49	13
9	42	16	6	3	1	75	10	1	57	6	10	11.82	49	1
9	42	16	6	3	1	75	10	1	57	6	10	734.21	49	15
9	42	16	6	3	1	75	10	1	58	6	9	13.41	49	1
9	42	16	6	3	1	75	10	1	59	16	10	64.58	49	2
9	42	16	6	3	1	75	10	1	59	16	10	773.91	49	16
9	42	16	6	3	1	75	10	1	60	6	1	12.71	49	1
9	42	16	6	3	1	75	10	1	60	6	1	640.91	49	13
9	42	16	6	3	1	75	10	1	61	6	8	10.77	49	1
9	42	16	6	3	1	75	10	1	61	6	8	786.7	49	16
9	42	16	6	3	1	75	10	1	62	6	3	9.04	49	1
9	42	16	6	3	1	75	10	1	62	6	3	641.83	49	13
9	42	16	6	3	1	75	10	1	63	6	6	8.97	49	1
9	42	16	6	3	1	75	10	1	63	6	6	609.05	49	13
9	42	16	6	3	1	75	10	1	64	6	5	740.62	49	15
9	42	16	6	3	1	75	10	1	65	6	7	8.31	49	1
9	42	16	6	3	1	75	10	1	65	6	7	680.5	49	14
9	42	16	6	3	1	75	10	1	66	6	4	8.74	49	1
9	42	16	6	3	1	75	10	1	66	6	4	720.07	49	15
9	42	16	6	3	1	75	10	1	67	6	7	11.78	49	1
9	42	16	6	3	1	75	10	1	67	6	7	723.61	49	15
9	42	16	6	3	1	75	10	1	68	6	4	11.85	49	1
9	42	16	6	3	1	75	10	1	68	6	4	760.84	49	16
9	42	16	6	3	1	75	10	1	69	6	10	12.06	49	1
9	42	16	6	3	1	75	10	1	69	6	10	633.94	49	13
9	42	16	6	3	1	75	10	1	70	6	2	663.47	49	14
9	42	16	6	3	1	75	10	1	71	6	1	11.3	49	1
9	42	16	6	3	1	75	10	1	71	6	1	725.69	49	15
9	42	16	6	3	1	75	10	1	72	6	9	10.21	49	1
9	42	16	6	3	1	75	10	1	73	6	5	9.2	49	1
9	42	16	6	3	1	75	10	1	73	6	5	680.21	49	14
9	42	16	6	3	1	75	10	1	74	6	6	8.6	49	1
9	42	16	6	3	1	75	10	1	74	6	6	633.92	49	13
9	42	16	6	3	1	75	10	1	75	6	3	8.12	49	1
9	42	16	6	3	1	75	10	1	75	6	3	645.39	49	13
9	42	16	6	3	1	75	10	1	76	6	8	0	-1	16
9	42	16	6	3	1	75	10	1	77	6	5	58.5	49	2
9	42	16	6	3	1	75	10	1	77	6	5	675.26	49	14
9	42	16	6	3	1	75	10	1	78	16	9	13.63	49	1
9	42	16	6	3	1	75	10	1	78	16	9	558.91	49	12
9	42	16	6	3	1	75	10	1	78	16	9	759.59	49	16
9	42	16	6	3	1	75	10	1	79	16	6	0	-1	16
9	42	16	6	3	1	75	10	1	80	16	3	0	-1	16
9	42	16	6	3	1	75	10	1	81	16	8	521	49	11
9	42	16	6	3	1	75	10	1	82	6	4	465.96	49	10
9	42	16	6	3	1	75	10	1	83	16	7	785.42	49	16
9	42	16	6	3	1	75	10	1	84	6	10	10.42	49	1
9	42	16	6	3	1	75	10	1	84	6	10	614.78	49	13
9	42	16	6	3	1	75	10	1	85	6	2	720.03	49	15
9	42	16	6	3	1	75	10	1	86	6	9	8.84	49	1
9	42	16	6	3	1	75	10	1	86	6	9	609.24	49	13
9	42	16	6	3	1	75	10	1	87	6	7	543.95	49	11
9	42	16	6	3	1	75	10	1	88	6	8	495.49	49	10
9	42	16	6	3	1	75	10	1	89	6	6	537.72	49	11
9	42	16	6	3	1	75	10	1	90	6	3	560.56	49	12
9	42	16	6	3	1	75	10	1	91	6	1	534	49	11
9	42	16	6	3	1	75	10	1	92	6	7	510.87	49	11
9	42	16	6	3	1	75	10	1	93	16	9	680.76	49	14
9	42	16	6	3	1	75	10	1	94	6	5	11.72	49	1
9	42	16	6	3	1	75	10	1	94	6	5	383.29	49	8
9	42	16	6	3	1	75	10	1	95	6	2	561.01	49	12
9	42	16	6	3	1	75	10	1	96	6	1	557.79	49	12
9	42	16	6	3	1	75	10	1	97	6	9	586.29	49	12
9	42	16	6	3	1	75	10	1	98	16	2	547.94	49	11
9	42	16	6	3	1	75	10	1	99	6	4	385.18	49	8
9	42	16	6	3	1	75	10	1	100	16	4	474.13	49	10
9	42	16	6	3	1	75	10	1	101	6	10	591.15	49	12
9	42	16	6	3	1	75	10	1	102	6	3	0	-1	16
9	42	16	6	3	1	75	10	1	103	6	6	20.24	49	1
9	42	16	6	3	1	75	10	1	103	6	6	771.93	49	16
9	42	16	6	3	1	75	10	1	104	6	8	13.86	49	1
9	42	16	6	3	1	75	10	1	104	6	8	763.39	49	16
9	42	16	6	3	1	75	10	1	105	6	5	12.22	49	1
9	42	16	6	3	1	75	10	1	105	6	5	676.24	49	14
9	42	16	6	3	1	75	10	1	106	6	9	11.03	49	1
9	42	16	6	3	1	75	10	1	106	6	9	633.94	49	13
9	42	16	6	3	1	75	10	1	107	16	10	10.59	49	1
9	42	16	6	3	1	75	10	1	108	6	4	558.09	49	12
9	42	16	6	3	1	75	10	1	109	16	1	768.89	49	16
9	42	16	6	3	1	75	10	1	110	6	2	9.51	49	1
9	42	16	6	3	1	75	10	1	110	6	2	676.39	49	14
9	42	16	6	3	1	75	10	1	111	6	10	9.68	49	1
9	42	16	6	3	1	75	10	1	112	6	6	135.5	49	3
9	42	16	6	3	1	75	10	1	113	16	5	11.22	49	1
9	42	16	6	3	1	75	10	1	114	6	3	579.63	49	12
9	42	16	6	3	1	75	10	1	115	6	7	673.17	49	14
9	42	16	6	3	1	75	10	1	116	16	3	13.52	49	1
9	42	16	6	3	1	75	10	1	117	16	6	0	-1	16
9	42	16	6	3	1	75	10	1	118	16	8	76.77	49	2
9	42	16	6	3	1	75	10	1	119	6	8	121.66	49	3
9	42	16	6	3	1	75	10	1	119	6	8	778.49	49	16
9	42	16	6	3	1	75	10	1	120	6	1	10.51	49	1
9	42	16	6	3	1	75	10	1	120	6	1	711.2	49	15
9	42	16	6	3	1	75	10	1	121	16	5	9.49	49	1
9	42	16	6	3	1	75	10	1	122	6	5	135.63	49	3
9	42	16	6	3	1	75	10	1	122	6	5	657.66	49	14
9	42	16	6	3	1	75	10	1	123	6	2	10.13	49	1
9	42	16	6	3	1	75	10	1	123	6	2	734.24	49	15
9	42	16	6	3	1	75	10	1	124	16	4	9.36	49	1
9	42	16	6	3	1	75	10	1	125	16	9	14.84	49	1
9	42	16	6	3	1	75	10	1	125	16	9	610.79	49	13
9	42	16	6	3	1	75	10	1	126	16	10	660.54	49	14
9	42	16	6	3	1	75	10	1	127	6	10	11.42	49	1
9	42	16	6	3	1	75	10	1	127	6	10	479.32	49	10
9	42	16	6	3	1	75	10	1	128	16	2	0	-1	16
9	42	16	6	3	1	75	10	1	129	16	6	259.71	49	6
9	42	16	6	3	1	75	10	1	130	16	8	409.14	49	9
9	42	16	6	3	1	75	10	1	130	16	8	611.17	49	13
9	42	16	6	3	1	75	10	1	131	16	7	0	-1	16
9	42	16	6	3	1	75	10	1	132	6	9	432.75	49	9
9	42	16	6	3	1	75	10	1	133	6	4	758.57	49	16
9	42	16	6	3	1	75	10	1	134	6	8	10.25	49	1
9	42	16	6	3	1	75	10	1	134	6	8	627.43	49	13
9	42	16	6	3	1	75	10	1	135	6	7	9.02	49	1
9	42	16	6	3	1	75	10	1	135	6	7	740.9	49	15
9	42	16	6	3	1	75	10	1	136	6	3	10.1	49	1
9	42	16	6	3	1	75	10	1	136	6	3	686.73	49	14
9	42	16	6	3	1	75	10	1	137	6	6	12.07	49	1
9	42	16	6	3	1	75	10	1	137	6	6	667.99	49	14
9	42	16	6	3	1	75	10	1	138	6	1	10.96	49	1
9	42	16	6	3	1	75	10	1	138	6	1	693.58	49	14
9	42	16	6	3	1	75	10	1	139	16	3	10.9	49	1
9	42	16	6	3	1	75	10	1	140	16	1	510.81	49	11
9	42	16	6	3	1	75	10	1	140	16	1	712.93	49	15
9	42	16	6	3	1	75	10	1	141	16	6	0	-1	16
9	42	16	6	3	1	75	10	1	142	6	7	574.24	49	12
9	42	16	6	3	1	75	10	1	143	6	2	0	-1	16
9	42	16	6	3	1	75	10	1	144	16	10	88.2	49	2
9	42	16	6	3	1	75	10	1	144	16	10	732.15	49	15
9	42	16	6	3	1	75	10	1	145	6	10	8.76	49	1
9	42	16	6	3	1	75	10	1	145	6	10	408.12	49	9
9	42	16	6	3	1	75	10	1	146	6	4	562.27	49	12
9	42	16	6	3	1	75	10	1	147	6	5	483.29	49	10
9	42	16	6	3	1	75	10	1	148	6	1	588.33	49	12
9	42	16	6	3	1	75	10	1	149	6	9	630.57	49	13
9	42	16	6	3	1	75	10	1	150	6	6	13.03	49	1
9	42	16	6	3	1	75	10	1	150	6	6	588.14	49	12
9	42	16	6	3	1	75	10	1	151	6	3	620.15	49	13
9	42	16	6	3	1	75	10	1	152	6	8	736.87	49	15
9	42	16	6	3	1	75	10	1	153	6	7	16.78	49	1
9	42	16	6	3	1	75	10	1	153	6	7	776.23	49	16
9	42	16	6	3	1	75	10	1	154	6	9	14.28	49	1
9	42	16	6	3	1	75	10	1	155	6	4	8.25	49	1
9	42	16	6	3	1	75	10	1	155	6	4	682.03	49	14
9	42	16	6	3	1	75	10	1	156	6	2	9.31	49	1
9	42	16	6	3	1	75	10	1	156	6	2	725.28	49	15
9	42	16	6	3	1	75	10	1	157	6	10	8.37	49	1
9	42	16	6	3	1	75	10	1	158	6	5	42.87	49	1
9	42	16	6	3	1	75	10	1	158	6	5	715.18	49	15
9	42	16	6	3	1	75	10	1	159	6	1	9.29	49	1
9	42	16	6	3	1	75	10	1	159	6	1	709.69	49	15
9	42	16	6	3	1	75	10	1	160	6	3	10.41	49	1
9	42	16	6	3	1	75	10	1	160	6	3	571.62	49	12
9	42	16	6	3	1	75	10	1	161	16	4	0	-1	16
9	42	16	6	3	1	75	10	1	162	6	6	760.37	49	16
9	42	16	6	3	1	75	10	1	163	16	8	11.4	49	1
9	42	16	6	3	1	75	10	1	164	6	8	643.53	49	13
9	42	16	6	3	1	75	10	1	165	6	6	9.35	49	1
9	42	16	6	3	1	75	10	1	165	6	6	576.93	49	12
9	42	16	6	3	1	75	10	1	166	16	7	0	-1	16
9	42	16	6	3	1	75	10	1	167	6	4	586.67	49	12
9	42	16	6	3	1	75	10	1	168	6	5	8.72	49	1
9	42	16	6	3	1	75	10	1	168	6	5	683.36	49	14
9	42	16	6	3	1	75	10	1	169	6	10	7.91	49	1
9	42	16	6	3	1	75	10	1	170	6	9	18.36	49	1
9	42	16	6	3	1	75	10	1	170	6	9	690.09	49	14
9	42	16	6	3	1	75	10	1	171	6	7	10.42	49	1
9	42	16	6	3	1	75	10	1	171	6	7	787.51	49	16
9	42	16	6	3	1	75	10	1	172	16	5	12.06	49	1
9	42	16	6	3	1	75	10	1	173	6	2	660.43	49	14
9	42	16	6	3	1	75	10	1	174	16	2	11.16	49	1
9	42	16	6	3	1	75	10	1	175	6	1	629.23	49	13
9	42	16	6	3	1	75	10	1	176	6	8	10.28	49	1
9	42	16	6	3	1	75	10	1	177	6	3	37.26	49	1
9	42	16	6	3	1	75	10	1	177	6	3	772.93	49	16
9	42	16	6	3	1	75	10	1	178	6	5	8.35	49	1
9	42	16	6	3	1	75	10	1	178	6	5	660.77	49	14
9	42	16	6	3	1	75	10	1	179	6	4	9.83	49	1
9	42	16	6	3	1	75	10	1	179	6	4	609.41	49	13
9	42	16	6	3	1	75	10	1	180	6	2	8.1	49	1
9	42	16	6	3	1	75	10	1	181	6	10	22.1	49	1
9	42	16	6	3	1	75	10	1	181	6	10	693.44	49	14
9	42	16	6	3	1	75	10	1	182	6	9	7.93	49	1
9	42	16	6	3	1	75	10	1	182	6	9	639.29	49	13
9	42	16	6	3	1	75	10	1	183	6	6	10.12	49	1
9	42	16	6	3	1	75	10	1	183	6	6	663.63	49	14
9	42	16	6	3	1	75	10	1	184	16	9	10.52	49	1
9	42	16	6	3	1	75	10	1	185	16	1	63.96	49	2
9	42	16	6	3	1	75	10	1	186	6	8	724.58	49	15
9	42	16	6	3	1	75	10	1	187	6	7	13.68	49	1
9	42	16	6	3	1	75	10	1	187	6	7	765.93	49	16
9	42	16	6	3	1	75	10	1	188	6	3	10.79	49	1
9	42	16	6	3	1	75	10	1	188	6	3	759.76	49	16
9	42	16	6	3	1	75	10	1	189	6	1	10.29	49	1
9	42	16	6	3	1	75	10	1	189	6	1	726.73	49	15
9	42	16	6	3	1	75	10	1	190	6	6	8.91	49	1
9	42	16	6	3	1	75	10	1	190	6	6	617.05	49	13
9	42	16	6	3	1	75	10	1	191	16	3	8.63	49	1
9	42	16	6	3	1	75	10	1	192	6	4	607.6	49	13
9	42	16	6	3	1	75	10	1	193	6	1	7.97	49	1
9	42	16	6	3	1	75	10	1	193	6	1	513.89	49	11
9	42	16	6	3	1	75	10	1	194	6	2	795.97	49	16
9	42	16	6	3	1	75	10	1	195	16	6	8.62	49	1
9	42	16	6	3	1	75	10	1	195	16	6	674.05	49	14
9	42	16	6	3	1	75	10	1	196	6	5	9.12	49	1
9	42	16	6	3	1	75	10	1	196	6	5	585.95	49	12
9	42	16	6	3	1	75	10	1	197	6	9	569.23	49	12
9	42	16	6	3	1	75	10	1	198	16	8	0	-1	16
9	42	16	6	3	1	75	10	1	199	16	10	561.04	49	12
9	42	16	6	3	1	75	10	1	200	6	10	11.49	49	1
9	42	16	6	3	1	75	10	1	201	6	7	91.66	49	2
9	42	16	6	3	1	75	10	1	201	6	7	720.06	49	15
9	42	16	6	3	1	75	10	1	202	6	8	9.2	49	1
9	42	16	6	3	1	75	10	1	203	16	2	8.27	49	1
9	42	16	6	3	1	75	10	1	204	6	3	567.74	49	12
9	42	16	6	3	1	75	10	1	205	16	7	0	-1	16
9	42	16	6	3	1	75	10	1	206	6	7	592.87	49	12
9	42	16	6	3	1	75	10	1	207	6	1	9.47	49	1
9	42	16	6	3	1	75	10	1	207	6	1	711.03	49	15
9	42	16	6	3	1	75	10	1	208	6	5	14.32	49	1
9	42	16	6	3	1	75	10	1	208	6	5	624.68	49	13
9	42	16	6	3	1	75	10	1	209	16	1	10.78	49	1
9	42	16	6	3	1	75	10	1	210	6	10	573.8	49	12
9	42	16	6	3	1	75	10	1	211	6	4	662.85	49	14
9	42	16	6	3	1	75	10	1	212	16	4	12.12	49	1
9	42	16	6	3	1	75	10	1	213	6	2	580.41	49	12
9	42	16	6	3	1	75	10	1	214	6	9	558.63	49	12
9	42	16	6	3	1	75	10	1	215	16	5	0	-1	16
9	42	16	6	3	1	75	10	1	216	6	3	609.25	49	13
9	42	16	6	3	1	75	10	1	217	6	6	642.59	49	13
9	42	16	6	3	1	75	10	1	218	6	8	8.18	49	1
9	42	16	6	3	1	75	10	1	218	6	8	719.83	49	15
9	42	16	6	3	1	75	10	1	219	6	6	8.61	49	1
9	42	16	6	3	1	75	10	1	219	6	6	614.01	49	13
9	42	16	6	3	1	75	10	1	220	6	4	673.07	49	14
9	42	16	6	3	1	75	10	1	221	16	9	11.96	49	1
9	42	16	6	3	1	75	10	1	222	6	9	610.54	49	13
9	42	16	6	3	1	75	10	1	223	6	10	12.54	49	1
9	42	16	6	3	1	75	10	1	223	6	10	720.42	49	15
9	42	16	6	3	1	75	10	1	224	6	1	10.3	49	1
9	42	16	6	3	1	75	10	1	225	16	3	234.24	49	5
9	42	16	6	3	1	75	10	1	226	6	2	616.81	49	13
9	42	16	6	3	1	75	10	1	227	6	7	8.47	49	1
9	42	16	6	3	1	75	10	1	228	6	5	388.17	49	8
9	42	16	6	3	1	75	10	1	229	6	8	458.58	49	10
9	42	16	6	3	1	75	10	1	230	6	3	591.02	49	12
9	42	16	6	3	1	75	10	1	231	6	6	610.58	49	13
9	42	16	6	3	1	75	10	1	232	16	6	10.32	49	1
9	42	16	6	3	1	75	10	1	232	16	6	711.57	49	15
9	42	16	6	3	1	75	10	1	233	16	7	13.29	49	1
9	42	16	6	3	1	75	10	1	233	16	7	632.83	49	13
9	42	16	6	3	1	75	10	1	234	6	5	10.1	49	1
9	42	16	6	3	1	75	10	1	234	6	5	759.67	49	16
9	42	16	6	3	1	75	10	1	235	6	7	9.64	49	1
9	42	16	6	3	1	75	10	1	235	6	7	637.55	49	13
9	42	16	6	3	1	75	10	1	236	16	8	0	-1	16
9	42	16	6	3	1	75	10	1	237	6	1	597.49	49	12
9	42	16	6	3	1	75	10	1	238	6	2	0	-1	16
9	42	16	6	3	1	75	10	1	239	6	8	23.43	49	1
9	42	16	6	3	1	75	10	1	239	6	8	791.64	49	16
9	42	16	6	3	1	75	10	1	240	6	4	9.61	49	1
9	42	16	6	3	1	75	10	1	240	6	4	760.46	49	16
9	42	16	6	3	1	75	10	1	241	6	9	13.41	49	1
9	42	16	6	3	1	75	10	1	241	6	9	711.3	49	15
9	42	16	6	3	1	75	10	1	242	6	10	13.1	49	1
9	42	16	6	3	1	75	10	1	243	6	3	290.04	49	6
9	42	16	6	3	1	75	10	1	244	16	5	0	-1	16
9	42	16	6	3	1	75	10	1	245	6	7	659.27	49	14
9	42	16	6	3	1	75	10	1	246	6	10	8.88	49	1
9	42	16	6	3	1	75	10	1	246	6	10	711.63	49	15
9	42	16	6	3	1	75	10	1	247	6	4	9.58	49	1
9	42	16	6	3	1	75	10	1	247	6	4	660.23	49	14
9	42	16	6	3	1	75	10	1	248	6	2	8.02	49	1
9	42	16	6	3	1	75	10	1	248	6	2	709.67	49	15
9	42	16	6	3	1	75	10	1	249	6	5	13.1	49	1
9	42	16	6	3	1	75	10	1	249	6	5	686.1	49	14
9	42	16	6	3	1	75	10	1	250	16	2	11.87	49	1
9	42	16	6	3	1	75	10	1	251	16	1	122.36	49	3
9	42	16	6	3	1	75	10	1	251	16	1	357.29	49	8
9	42	16	6	3	1	75	10	1	252	6	1	639.11	49	13
9	42	16	6	3	1	75	10	1	253	16	4	13.54	49	1
9	42	16	6	3	1	75	10	1	254	6	9	711.16	49	15
9	42	16	6	3	1	75	10	1	255	6	6	12.46	49	1
9	42	16	6	3	1	75	10	1	255	6	6	711.08	49	15
9	42	16	6	3	1	75	10	1	256	6	3	11.97	49	1
9	42	16	6	3	1	75	10	1	256	6	3	742.68	49	15
9	42	16	6	3	1	75	10	1	257	6	8	10.72	49	1
9	42	16	6	3	1	75	10	1	258	6	6	194.15	49	4
9	42	16	6	3	1	75	10	1	259	6	2	8.13	49	1
9	42	16	6	3	1	75	10	1	259	6	2	208.76	49	5
9	42	16	6	3	1	75	10	1	260	6	7	9.12	49	1
9	42	16	6	3	1	75	10	1	260	6	7	209.94	49	5
9	42	16	6	3	1	75	10	1	260	6	7	776.62	49	16
9	42	16	6	3	1	75	10	1	261	16	9	14.85	49	1
9	42	16	6	3	1	75	10	1	262	6	8	768.63	49	16
9	42	16	6	3	1	75	10	1	263	6	5	11.64	49	1
9	42	16	6	3	1	75	10	1	263	6	5	757.18	49	16
9	42	16	6	3	1	75	10	1	264	6	9	10.06	49	1
9	42	16	6	3	1	75	10	1	264	6	9	643.54	49	13
9	42	16	6	3	1	75	10	1	265	16	10	13.24	49	1
9	42	16	6	3	1	75	10	1	266	6	1	63.95	49	2
9	42	16	6	3	1	75	10	1	266	6	1	662.75	49	14
9	42	16	6	3	1	75	10	1	267	6	4	12.24	49	1
9	42	16	6	3	1	75	10	1	267	6	4	660.7	49	14
9	42	16	6	3	1	75	10	1	268	6	10	12.99	49	1
9	42	16	6	3	1	75	10	1	268	6	10	675.98	49	14
9	42	16	6	3	1	75	10	1	269	16	3	11.31	49	1
9	42	16	6	3	1	75	10	1	270	6	3	620.61	49	13
9	42	16	6	3	1	75	10	1	271	16	7	9.04	49	1
9	42	16	6	3	1	75	10	1	272	6	6	532.78	49	11
9	42	16	6	3	1	75	10	1	272	6	6	758.11	49	16
9	42	16	6	3	1	75	10	1	273	16	1	0	-1	16
9	42	16	6	3	1	75	10	1	274	6	8	758.04	49	16
9	42	16	6	3	1	75	10	1	275	6	4	9.04	49	1
9	42	16	6	3	1	75	10	1	275	6	4	767.88	49	16
9	42	16	6	3	1	75	10	1	276	16	10	11.66	49	1
9	42	16	6	3	1	75	10	1	277	6	10	517.06	49	11
9	42	16	6	3	1	75	10	1	278	6	2	0	-1	16
9	42	16	6	3	1	75	10	1	279	6	9	70.08	49	2
9	42	16	6	3	1	75	10	1	279	6	9	616.67	49	13
9	42	16	6	3	1	75	10	1	280	6	1	662.91	49	14
9	42	16	6	3	1	75	10	1	281	6	5	10.88	49	1
9	42	16	6	3	1	75	10	1	281	6	5	582.69	49	12
9	42	16	6	3	1	75	10	1	282	6	7	0	-1	16
9	42	16	6	3	1	75	10	1	283	6	3	59.1	49	2
9	42	16	6	3	1	75	10	1	283	6	3	644.09	49	13
9	42	16	6	3	1	75	10	1	284	6	2	8.92	49	1
9	42	16	6	3	1	75	10	1	284	6	2	665.99	49	14
9	42	16	6	3	1	75	10	1	285	6	10	8.71	49	1
9	42	16	6	3	1	75	10	1	285	6	10	579.65	49	12
9	42	16	6	3	1	75	10	1	286	6	9	738.99	49	15
9	42	16	6	3	1	75	10	1	287	6	8	8.97	49	1
9	42	16	6	3	1	75	10	1	287	6	8	711.02	49	15
9	42	16	6	3	1	75	10	1	288	16	9	10.66	49	1
9	42	16	6	3	1	75	10	1	289	6	5	387.46	49	8
9	42	16	6	3	1	75	10	1	290	6	1	460.79	49	10
9	42	16	6	3	1	75	10	1	291	6	7	782.93	49	16
9	42	16	6	3	1	75	10	1	292	16	2	11.14	49	1
9	42	16	6	3	1	75	10	1	293	6	3	11.41	49	1
9	42	16	6	3	1	75	10	1	293	6	3	213.8	49	5
9	42	16	6	3	1	75	10	1	293	6	3	559.98	49	12
9	42	16	6	3	1	75	10	1	294	6	6	787.09	49	16
9	42	16	6	3	1	75	10	1	295	6	4	9.09	49	1
9	42	16	6	3	1	75	10	1	295	6	4	723.18	49	15
9	42	16	6	3	1	75	10	1	296	16	5	9.16	49	1
9	42	16	6	3	1	75	10	1	297	16	4	624.03	49	13
9	42	16	6	3	1	75	10	1	298	6	2	8.66	49	1
9	42	16	6	3	1	75	10	1	298	6	2	589.72	49	12
9	42	16	6	3	1	75	10	1	299	6	9	581.01	49	12
9	42	16	6	3	1	75	10	1	300	6	10	10.85	49	1
9	42	16	6	3	1	75	10	1	300	6	10	710.59	49	15
9	42	16	6	3	1	75	10	1	301	16	6	10.4	49	1
9	42	16	6	3	1	75	10	1	301	16	6	762.14	49	16
9	42	16	6	3	1	75	10	1	302	6	1	11.69	49	1
9	42	16	6	3	1	75	10	1	302	6	1	565.91	49	12
9	42	16	6	3	1	75	10	1	302	6	1	766.26	49	16
9	42	16	6	3	1	75	10	1	303	6	8	0	-1	16
9	42	16	6	3	1	75	10	1	304	16	3	233.74	49	5
9	42	16	6	3	1	75	10	1	305	6	6	459.68	49	10
9	42	16	6	3	1	75	10	1	305	6	6	661.97	49	14
9	42	16	6	3	1	75	10	1	306	16	8	559.06	49	12
9	42	16	6	3	1	75	10	1	307	6	7	609.75	49	13
9	42	16	6	3	1	75	10	1	308	6	3	788.17	49	16
9	42	16	6	3	1	75	10	1	309	16	7	8.69	49	1
9	42	16	6	3	1	75	10	1	310	16	1	631.43	49	13
9	42	16	6	3	1	75	10	1	311	6	5	9.45	49	1
9	42	16	6	3	1	75	10	1	311	6	5	542.67	49	11
9	42	16	6	3	1	75	10	1	312	6	4	566.03	49	12
9	42	16	6	3	1	75	10	1	313	6	7	614.38	49	13
9	42	16	6	3	1	75	10	1	314	16	9	11.38	49	1
9	42	16	6	3	1	75	10	1	315	6	9	529.47	49	11
9	42	16	6	3	1	75	10	1	316	16	4	619.82	49	13
9	42	16	6	3	1	75	10	1	317	6	2	664.24	49	14
9	42	16	6	3	1	75	10	1	318	6	4	10.05	49	1
9	42	16	6	3	1	75	10	1	318	6	4	726.43	49	15
9	42	16	6	3	1	75	10	1	319	16	5	10.58	49	1
9	42	16	6	3	1	75	10	1	319	16	5	759.24	49	16
9	42	16	6	3	1	75	10	1	320	6	5	8.8	49	1
9	42	16	6	3	1	75	10	1	320	6	5	674.72	49	14
9	42	16	6	3	1	75	10	1	321	6	1	8.08	49	1
9	42	16	6	3	1	75	10	1	322	6	10	8.79	49	1
9	42	16	6	3	1	75	10	1	322	6	10	771.12	49	16
9	42	16	6	3	1	75	10	1	323	16	10	12.03	49	1
9	42	16	6	3	1	75	10	1	324	16	2	8.97	49	1
9	42	16	6	3	1	75	10	1	324	16	2	636.85	49	13
9	42	16	6	3	1	75	10	1	325	6	6	8.23	49	1
9	42	16	6	3	1	75	10	1	325	6	6	744.01	49	15
9	42	16	6	3	1	75	10	1	326	6	3	11.49	49	1
9	42	16	6	3	1	75	10	1	327	6	8	29.79	49	1
9	42	16	6	3	1	75	10	1	328	6	5	743.21	49	15
9	42	16	6	3	1	75	10	1	329	6	10	11.36	49	1
9	42	16	6	3	1	75	10	1	329	6	10	712.98	49	15
9	42	16	6	3	1	75	10	1	330	6	4	10.87	49	1
9	42	16	6	3	1	75	10	1	331	6	9	309.49	49	7
9	42	16	6	3	1	75	10	1	332	6	2	586.54	49	12
9	42	16	6	3	1	75	10	1	333	6	8	757.54	49	16
9	42	16	6	3	1	75	10	1	334	6	7	8.7	49	1
9	42	16	6	3	1	75	10	1	334	6	7	717.4	49	15
9	42	16	6	3	1	75	10	1	335	6	3	8.66	49	1
9	42	16	6	3	1	75	10	1	336	6	6	9.24	49	1
9	42	16	6	3	1	75	10	1	336	6	6	642.97	49	13
9	42	16	6	3	1	75	10	1	337	6	1	8.73	49	1
9	42	16	6	3	1	75	10	1	337	6	1	672.68	49	14
9	42	16	6	3	1	75	10	1	338	6	7	8.64	49	1
9	42	16	6	3	1	75	10	1	339	6	9	89.29	49	2
9	42	16	6	3	1	75	10	1	340	6	4	60.48	49	2
9	42	16	6	3	1	75	10	1	340	6	4	782.32	49	16
9	42	16	6	3	1	75	10	1	341	6	10	11.9	49	1
9	42	16	6	3	1	75	10	1	342	6	5	360.36	49	8
9	42	16	6	3	1	75	10	1	343	16	6	0	-1	16
9	42	16	6	3	1	75	10	1	344	16	3	0	-1	16
9	42	16	6	3	1	75	10	1	345	16	8	0	-1	16
9	42	16	6	3	1	75	10	1	346	6	2	680.44	49	14
9	42	16	6	3	1	75	10	1	347	16	2	7.98	49	1
9	42	16	6	3	1	75	10	1	348	6	1	609.61	49	13
9	42	16	6	3	1	75	10	1	349	6	3	615.23	49	13
9	42	16	6	3	1	75	10	1	350	6	6	573.06	49	12
9	42	16	6	3	1	75	10	1	351	6	8	691.67	49	14
9	42	16	6	3	1	75	10	1	352	6	2	11.71	49	1
9	42	16	6	3	1	75	10	1	352	6	2	710.23	49	15
9	42	16	6	3	1	75	10	1	353	6	9	13.78	49	1
9	42	16	6	3	1	75	10	1	353	6	9	591.09	49	12
9	42	16	6	3	1	75	10	1	354	6	10	686.75	49	14
9	42	16	6	3	1	75	10	1	355	6	7	10.33	49	1
9	42	16	6	3	1	75	10	1	355	6	7	617.57	49	13
9	42	16	6	3	1	75	10	1	356	16	9	8.72	49	1
9	42	16	6	3	1	75	10	1	357	6	1	544.2	49	11
9	42	16	6	3	1	75	10	1	358	6	6	567.42	49	12
9	42	16	6	3	1	75	10	1	359	6	5	670	49	14
9	42	16	6	3	1	75	10	1	360	6	8	8.88	49	1
9	42	16	6	3	1	75	10	1	360	6	8	674.79	49	14
9	42	16	6	3	1	75	10	1	361	6	3	10.58	49	1
9	42	16	6	3	1	75	10	1	361	6	3	677.87	49	14
9	42	16	6	3	1	75	10	1	362	6	4	11.46	49	1
9	42	16	6	3	1	75	10	1	362	6	4	622.2	49	13
9	42	16	6	3	1	75	10	1	363	6	5	13.88	49	1
9	42	16	6	3	1	75	10	1	363	6	5	631.69	49	13
9	42	16	6	3	1	75	10	1	364	6	2	12.17	49	1
9	42	16	6	3	1	75	10	1	364	6	2	611.24	49	13
9	42	16	6	3	1	75	10	1	365	16	10	11.91	49	1
9	42	16	6	3	1	75	10	1	365	16	10	616.65	49	13
9	42	16	6	3	1	75	10	1	366	6	10	10.74	49	1
9	42	16	6	3	1	75	10	1	366	6	10	609.64	49	13
9	42	16	6	3	1	75	10	1	367	6	9	538.45	49	11
9	42	16	6	3	1	75	10	1	368	6	4	569.6	49	12
9	42	16	6	3	1	75	10	1	369	6	3	642.66	49	13
9	42	16	6	3	1	75	10	1	370	6	8	8.41	49	1
9	42	16	6	3	1	75	10	1	370	6	8	707.93	49	15
9	42	16	6	3	1	75	10	1	371	6	7	8.29	49	1
9	42	16	6	3	1	75	10	1	371	6	7	713.47	49	15
9	42	16	6	3	1	75	10	1	372	6	6	10.48	49	1
9	42	16	6	3	1	75	10	1	372	6	6	581.01	49	12
9	42	16	6	3	1	75	10	1	373	6	1	614.76	49	13
9	42	16	6	3	1	75	10	1	374	6	2	14.72	49	1
9	42	16	6	3	1	75	10	1	374	6	2	638.72	49	13
9	42	16	6	3	1	75	10	1	375	6	10	11.68	49	1
9	42	16	6	3	1	75	10	1	375	6	10	613.21	49	13
9	42	16	6	3	1	75	10	1	376	6	9	611.56	49	13
9	42	16	6	3	1	75	10	1	377	6	7	10.94	49	1
9	42	16	6	3	1	75	10	1	378	16	7	16.55	49	1
9	42	16	6	3	1	75	10	1	379	16	3	0	-1	16
9	42	16	6	3	1	75	10	1	380	16	5	0	-1	16
9	42	16	6	3	1	75	10	1	381	6	5	541.72	49	11
9	42	16	6	3	1	75	10	1	382	16	6	0	-1	16
9	42	16	6	3	1	75	10	1	383	6	8	607.54	49	13
9	42	16	6	3	1	75	10	1	384	6	1	621.56	49	13
9	42	16	6	3	1	75	10	1	385	6	6	9.17	49	1
9	42	16	6	3	1	75	10	1	385	6	6	663.67	49	14
9	42	16	6	3	1	75	10	1	386	6	3	13.52	49	1
9	42	16	6	3	1	75	10	1	386	6	3	710.56	49	15
9	42	16	6	3	1	75	10	1	387	16	8	14.69	49	1
9	42	16	6	3	1	75	10	1	388	6	4	530.18	49	11
9	42	16	6	3	1	75	10	1	389	6	7	660.89	49	14
9	42	16	6	3	1	75	10	1	390	6	1	13.16	49	1
9	42	16	6	3	1	75	10	1	390	6	1	694.79	49	14
9	42	16	6	3	1	75	10	1	391	6	2	9.46	49	1
9	42	16	6	3	1	75	10	1	392	6	5	107.6	49	3
9	42	16	6	3	1	75	10	1	392	6	5	714.51	49	15
9	42	16	6	3	1	75	10	1	393	16	1	10.82	49	1
9	42	16	6	3	1	75	10	1	393	16	1	773.99	49	16
9	42	16	6	3	1	75	10	1	394	6	10	13.35	49	1
9	42	16	6	3	1	75	10	1	394	6	10	692.73	49	14
9	42	16	6	3	1	75	10	1	395	16	4	8.78	49	1
9	42	16	6	3	1	75	10	1	396	6	4	609.27	49	13
9	42	16	6	3	1	75	10	1	397	6	9	710.97	49	15
9	42	16	6	3	1	75	10	1	398	6	6	14.12	49	1
9	42	16	6	3	1	75	10	1	398	6	6	660.59	49	14
9	42	16	6	3	1	75	10	1	399	6	3	11.42	49	1
9	42	16	6	3	1	75	10	1	399	6	3	714.97	49	15
9	42	16	6	3	1	75	10	1	400	6	8	9.99	49	1
9	42	16	6	3	1	75	10	1	401	16	5	121.26	49	3
9	42	16	6	3	1	75	10	1	402	6	6	559.91	49	12
9	42	16	6	3	1	75	10	1	402	6	6	760.24	49	16
9	42	16	6	3	1	75	10	1	403	16	9	775.36	49	16
9	42	16	6	3	1	75	10	1	404	6	10	9.16	49	1
9	42	16	6	3	1	75	10	1	404	6	10	569.46	49	12
9	42	16	6	3	1	75	10	1	405	6	9	616.35	49	13
9	42	16	6	3	1	75	10	1	406	16	2	0	-1	16
9	42	16	6	3	1	75	10	1	407	16	10	618.52	49	13
9	42	16	6	3	1	75	10	1	408	6	5	429.03	49	9
9	42	16	6	3	1	75	10	1	409	16	4	0	-1	16
9	42	16	6	3	1	75	10	1	410	16	6	711.32	49	15
9	42	16	6	3	1	75	10	1	411	6	7	10.59	49	1
9	42	16	6	3	1	75	10	1	411	6	7	583.45	49	12
9	42	16	6	3	1	75	10	1	412	16	7	645.18	49	13
9	42	16	6	3	1	75	10	1	413	6	4	466.02	49	10
9	42	16	6	3	1	75	10	1	414	16	8	0	-1	16
9	42	16	6	3	1	75	10	1	415	6	2	0	-1	16
9	42	16	6	3	1	75	10	1	416	6	1	73.45	49	2
9	42	16	6	3	1	75	10	1	416	6	1	757.89	49	16
9	42	16	6	3	1	75	10	1	417	6	8	8.6	49	1
9	42	16	6	3	1	75	10	1	418	6	3	13.01	49	1
9	42	16	6	3	1	75	10	1	418	6	3	678.49	49	14
9	42	16	6	3	1	75	10	1	419	6	2	14.42	49	1
9	42	16	6	3	1	75	10	1	419	6	2	781.32	49	16
9	42	16	6	3	1	75	10	1	420	6	10	11.8	49	1
9	42	16	6	3	1	75	10	1	421	16	3	13.21	49	1
9	42	16	6	3	1	75	10	1	422	6	9	426.24	49	9
9	42	16	6	3	1	75	10	1	423	16	1	0	-1	16
9	42	16	6	3	1	75	10	1	424	6	7	663.26	49	14
9	42	16	6	3	1	75	10	1	425	6	6	11.77	49	1
9	42	16	6	3	1	75	10	1	425	6	6	741.49	49	15
9	42	16	6	3	1	75	10	1	426	16	6	10.84	49	1
9	42	16	6	3	1	75	10	1	427	6	5	628.1	49	13
9	42	16	6	3	1	75	10	1	428	16	7	0	-1	16
9	42	16	6	3	1	75	10	1	429	6	8	24.87	49	1
9	42	16	6	3	1	75	10	1	429	6	8	610.92	49	13
9	42	16	6	3	1	75	10	1	430	6	1	11.27	49	1
9	42	16	6	3	1	75	10	1	431	16	1	134.79	49	3
9	42	16	6	3	1	75	10	1	432	6	3	710.72	49	15
9	42	16	6	3	1	75	10	1	433	6	4	12.38	49	1
9	42	16	6	3	1	75	10	1	434	6	6	13.6	49	1
9	42	16	6	3	1	75	10	1	435	6	1	20.9	49	1
9	42	16	6	3	1	75	10	1	436	6	4	42	49	1
9	42	16	6	3	1	75	10	1	436	6	4	723.98	49	15
9	42	16	6	3	1	75	10	1	437	6	10	8.69	49	1
9	42	16	6	3	1	75	10	1	437	6	10	617.67	49	13
9	42	16	6	3	1	75	10	1	438	6	5	12.45	49	1
9	42	16	6	3	1	75	10	1	438	6	5	609.8	49	13
9	42	16	6	3	1	75	10	1	439	16	10	7.95	49	1
9	42	16	6	3	1	75	10	1	440	6	7	608.36	49	13
9	42	16	6	3	1	75	10	1	441	6	2	8.16	49	1
9	42	16	6	3	1	75	10	1	441	6	2	764.17	49	16
9	42	16	6	3	1	75	10	1	442	6	9	12.42	49	1
9	42	16	6	3	1	75	10	1	442	6	9	786.37	49	16
9	42	16	6	3	1	75	10	1	443	6	8	15.7	49	1
9	42	16	6	3	1	75	10	1	444	6	3	60.33	49	2
9	42	16	6	3	1	75	10	1	445	6	5	11.23	49	1
9	42	16	6	3	1	75	10	1	445	6	5	710.56	49	15
9	42	16	6	3	1	75	10	1	446	6	4	13.55	49	1
9	42	16	6	3	1	75	10	1	446	6	4	660.62	49	14
9	42	16	6	3	1	75	10	1	447	6	9	10.75	49	1
9	42	16	6	3	1	75	10	1	447	6	9	690.1	49	14
9	42	16	6	3	1	75	10	1	448	6	2	9.84	49	1
9	42	16	6	3	1	75	10	1	448	6	2	764.4	49	16
9	42	16	6	3	1	75	10	1	449	6	10	8.7	49	1
9	42	16	6	3	1	75	10	1	449	6	10	660.96	49	14
9	42	16	6	3	1	75	10	1	450	6	8	9.88	49	1
9	42	16	6	3	1	75	10	1	450	6	8	691.87	49	14
