SubjectNum	Age	Gender	PressedTask	Block Type	Block Repeat Num	Response Rate	Onset	Block	Trial	ImgType	ImgNum	RT	PressedC	FrameC
15	32	16	6	2	1	75	10	1	1	6	5	525.61	49	9
15	32	16	6	2	1	75	10	1	2	6	10	36.54	49	1
15	32	16	6	2	1	75	10	1	3	6	4	58.48	49	2
15	32	16	6	2	1	75	10	1	3	6	4	708.03	49	15
15	32	16	6	2	1	75	10	1	4	6	9	10.79	49	1
15	32	16	6	2	1	75	10	1	5	16	7	63.36	49	2
15	32	16	6	2	1	75	10	1	6	6	2	0	-1	16
15	32	16	6	2	1	75	10	1	7	6	3	108.46	49	3
15	32	16	6	2	1	75	10	1	7	6	3	765.6	49	16
15	32	16	6	2	1	75	10	1	8	16	9	10.19	49	1
15	32	16	6	2	1	75	10	1	9	6	8	735.2	49	15
15	32	16	6	2	1	75	10	1	10	16	2	8.76	49	1
15	32	16	6	2	1	75	10	1	11	6	7	0	-1	16
15	32	16	6	2	1	75	10	1	12	6	6	157.49	49	4
15	32	16	6	2	1	75	10	1	12	6	6	794.79	49	16
15	32	16	6	2	1	75	10	1	13	6	1	10.04	49	1
15	32	16	6	2	1	75	10	1	14	16	5	93.42	49	2
15	32	16	6	2	1	75	10	1	15	6	5	538.85	49	11
15	32	16	6	2	1	75	10	1	16	6	2	760.52	49	16
15	32	16	6	2	1	75	10	1	17	6	4	10.77	49	1
15	32	16	6	2	1	75	10	1	17	6	4	684.08	49	14
15	32	16	6	2	1	75	10	1	18	6	9	10.92	49	1
15	32	16	6	2	1	75	10	1	18	6	9	787.5	49	16
15	32	16	6	2	1	75	10	1	19	6	10	9.78	49	1
15	32	16	6	2	1	75	10	1	20	16	1	218.04	49	5
15	32	16	6	2	1	75	10	1	21	6	3	730.41	49	15
15	32	16	6	2	1	75	10	1	22	16	10	8.07	49	1
15	32	16	6	2	1	75	10	1	22	16	10	762.68	49	16
15	32	16	6	2	1	75	10	1	23	6	7	8.02	49	1
15	32	16	6	2	1	75	10	1	23	6	7	660.15	49	14
15	32	16	6	2	1	75	10	1	24	16	4	8.5	49	1
15	32	16	6	2	1	75	10	1	25	6	8	794.13	49	16
15	32	16	6	2	1	75	10	1	26	16	3	8.22	49	1
15	32	16	6	2	1	75	10	1	27	6	6	768.23	49	16
15	32	16	6	2	1	75	10	1	28	6	1	10.47	49	1
15	32	16	6	2	1	75	10	1	29	6	6	91.53	49	2
15	32	16	6	2	1	75	10	1	30	6	1	74.94	49	2
15	32	16	6	2	1	75	10	1	31	16	6	191.32	49	4
15	32	16	6	2	1	75	10	1	32	6	9	609.88	49	13
15	32	16	6	2	1	75	10	1	33	6	8	734.44	49	15
15	32	16	6	2	1	75	10	1	34	6	10	7.84	49	1
15	32	16	6	2	1	75	10	1	35	16	8	207.19	49	5
15	32	16	6	2	1	75	10	1	36	6	7	0	-1	16
15	32	16	6	2	1	75	10	1	37	6	4	122.71	49	3
15	32	16	6	2	1	75	10	1	38	6	2	19.86	49	1
15	32	16	6	2	1	75	10	1	39	6	5	19.47	49	1
15	32	16	6	2	1	75	10	1	39	6	5	760.53	49	16
15	32	16	6	2	1	75	10	1	40	16	7	10.79	49	1
15	32	16	6	2	1	75	10	1	41	16	4	0	-1	16
15	32	16	6	2	1	75	10	1	42	6	3	0	-1	16
15	32	16	6	2	1	75	10	1	43	6	7	409.25	49	9
15	32	16	6	2	1	75	10	1	44	6	5	9.34	49	1
15	32	16	6	2	1	75	10	1	44	6	5	773.44	49	16
15	32	16	6	2	1	75	10	1	45	6	2	10.51	49	1
15	32	16	6	2	1	75	10	1	46	6	1	107.63	49	3
15	32	16	6	2	1	75	10	1	47	6	9	93.04	49	2
15	32	16	6	2	1	75	10	1	48	6	4	228.94	49	5
15	32	16	6	2	1	75	10	1	48	6	4	719.65	49	15
15	32	16	6	2	1	75	10	1	49	16	5	7.39	49	1
15	32	16	6	2	1	75	10	1	50	16	1	0	-1	16
15	32	16	6	2	1	75	10	1	51	6	10	0	-1	16
15	32	16	6	2	1	75	10	1	52	6	6	10.13	49	1
15	32	16	6	2	1	75	10	1	52	6	6	760.26	49	16
15	32	16	6	2	1	75	10	1	53	6	3	9.9	49	1
15	32	16	6	2	1	75	10	1	53	6	3	781.79	49	16
15	32	16	6	2	1	75	10	1	54	6	8	10.42	49	1
15	32	16	6	2	1	75	10	1	55	16	2	75.49	49	2
15	32	16	6	2	1	75	10	1	56	6	2	711.23	49	15
15	32	16	6	2	1	75	10	1	57	6	10	8.91	49	1
15	32	16	6	2	1	75	10	1	58	6	9	16.71	49	1
15	32	16	6	2	1	75	10	1	59	16	10	110.55	49	3
15	32	16	6	2	1	75	10	1	60	6	1	695.88	49	14
15	32	16	6	2	1	75	10	1	61	6	8	7.69	49	1
15	32	16	6	2	1	75	10	1	62	6	3	10.96	49	1
15	32	16	6	2	1	75	10	1	62	6	3	678.19	49	14
15	32	16	6	2	1	75	10	1	63	6	6	8.1	49	1
15	32	16	6	2	1	75	10	1	63	6	6	644.17	49	13
15	32	16	6	2	1	75	10	1	64	6	5	8.18	49	1
15	32	16	6	2	1	75	10	1	64	6	5	660.14	49	14
15	32	16	6	2	1	75	10	1	65	6	7	10.2	49	1
15	32	16	6	2	1	75	10	1	66	6	4	259.85	49	6
15	32	16	6	2	1	75	10	1	67	6	7	16.79	49	1
15	32	16	6	2	1	75	10	1	67	6	7	774.23	49	16
15	32	16	6	2	1	75	10	1	68	6	4	9	49	1
15	32	16	6	2	1	75	10	1	68	6	4	713.5	49	15
15	32	16	6	2	1	75	10	1	69	6	10	8.04	49	1
15	32	16	6	2	1	75	10	1	70	6	2	209.37	49	5
15	32	16	6	2	1	75	10	1	71	6	1	20.39	49	1
15	32	16	6	2	1	75	10	1	71	6	1	707.55	49	15
15	32	16	6	2	1	75	10	1	72	6	9	10.34	49	1
15	32	16	6	2	1	75	10	1	72	6	9	711.72	49	15
15	32	16	6	2	1	75	10	1	73	6	5	7.84	49	1
15	32	16	6	2	1	75	10	1	73	6	5	578.18	49	12
15	32	16	6	2	1	75	10	1	74	6	6	695.36	49	14
15	32	16	6	2	1	75	10	1	75	6	3	8.27	49	1
15	32	16	6	2	1	75	10	1	76	6	8	67.51	49	2
15	32	16	6	2	1	75	10	1	77	6	5	159.92	49	4
15	32	16	6	2	1	75	10	1	77	6	5	360.3	49	8
15	32	16	6	2	1	75	10	1	78	16	9	22.25	49	1
15	32	16	6	2	1	75	10	1	79	16	6	0	-1	16
15	32	16	6	2	1	75	10	1	80	16	3	0	-1	16
15	32	16	6	2	1	75	10	1	81	16	8	0	-1	16
15	32	16	6	2	1	75	10	1	82	6	4	760.01	49	16
15	32	16	6	2	1	75	10	1	83	16	7	7.91	49	1
15	32	16	6	2	1	75	10	1	84	6	10	629.05	49	13
15	32	16	6	2	1	75	10	1	85	6	2	7.57	49	1
15	32	16	6	2	1	75	10	1	86	6	9	13.75	49	1
15	32	16	6	2	1	75	10	1	86	6	9	757.29	49	16
15	32	16	6	2	1	75	10	1	87	6	7	8.53	49	1
15	32	16	6	2	1	75	10	1	88	6	8	9.9	49	1
15	32	16	6	2	1	75	10	1	89	6	6	109.84	49	3
15	32	16	6	2	1	75	10	1	90	6	3	36.79	49	1
15	32	16	6	2	1	75	10	1	91	6	1	24.34	49	1
15	32	16	6	2	1	75	10	1	91	6	1	742.08	49	15
15	32	16	6	2	1	75	10	1	92	6	7	9.93	49	1
15	32	16	6	2	1	75	10	1	92	6	7	738.83	49	15
15	32	16	6	2	1	75	10	1	93	16	9	8.94	49	1
15	32	16	6	2	1	75	10	1	94	6	5	571.03	49	12
15	32	16	6	2	1	75	10	1	95	6	2	757.31	49	16
15	32	16	6	2	1	75	10	1	96	6	1	10.36	49	1
15	32	16	6	2	1	75	10	1	96	6	1	683.11	49	14
15	32	16	6	2	1	75	10	1	97	6	9	10.23	49	1
15	32	16	6	2	1	75	10	1	97	6	9	707.57	49	15
15	32	16	6	2	1	75	10	1	98	16	2	7.85	49	1
15	32	16	6	2	1	75	10	1	99	6	4	642.37	49	13
15	32	16	6	2	1	75	10	1	100	16	4	8.21	49	1
15	32	16	6	2	1	75	10	1	101	6	10	0	-1	16
15	32	16	6	2	1	75	10	1	102	6	3	36.39	49	1
15	32	16	6	2	1	75	10	1	103	6	6	110.68	49	3
15	32	16	6	2	1	75	10	1	103	6	6	709.96	49	15
15	32	16	6	2	1	75	10	1	104	6	8	13.04	49	1
15	32	16	6	2	1	75	10	1	105	6	5	77.06	49	2
15	32	16	6	2	1	75	10	1	105	6	5	690.09	49	14
15	32	16	6	2	1	75	10	1	106	6	9	11.07	49	1
15	32	16	6	2	1	75	10	1	106	6	9	730.76	49	15
15	32	16	6	2	1	75	10	1	107	16	10	8.04	49	1
15	32	16	6	2	1	75	10	1	108	6	4	464.69	49	10
15	32	16	6	2	1	75	10	1	109	16	1	715.99	49	15
15	32	16	6	2	1	75	10	1	110	6	2	11.27	49	1
15	32	16	6	2	1	75	10	1	111	6	10	140.77	49	3
15	32	16	6	2	1	75	10	1	112	6	6	85.03	49	2
15	32	16	6	2	1	75	10	1	113	16	5	24.88	49	1
15	32	16	6	2	1	75	10	1	114	6	3	660.37	49	14
15	32	16	6	2	1	75	10	1	115	6	7	10.3	49	1
15	32	16	6	2	1	75	10	1	116	16	3	112.21	49	3
15	32	16	6	2	1	75	10	1	117	16	6	0	-1	16
15	32	16	6	2	1	75	10	1	118	16	8	0	-1	16
15	32	16	6	2	1	75	10	1	119	6	8	684.31	49	14
15	32	16	6	2	1	75	10	1	120	6	1	10.06	49	1
15	32	16	6	2	1	75	10	1	120	6	1	719.35	49	15
15	32	16	6	2	1	75	10	1	121	16	5	7.96	49	1
15	32	16	6	2	1	75	10	1	122	6	5	608.01	49	13
15	32	16	6	2	1	75	10	1	123	6	2	741.59	49	15
15	32	16	6	2	1	75	10	1	124	16	4	9.38	49	1
15	32	16	6	2	1	75	10	1	125	16	9	0	-1	16
15	32	16	6	2	1	75	10	1	126	16	10	628.93	49	13
15	32	16	6	2	1	75	10	1	127	6	10	10.88	49	1
15	32	16	6	2	1	75	10	1	127	6	10	680.23	49	14
15	32	16	6	2	1	75	10	1	128	16	2	11.26	49	1
15	32	16	6	2	1	75	10	1	129	16	6	0	-1	16
15	32	16	6	2	1	75	10	1	130	16	8	0	-1	16
15	32	16	6	2	1	75	10	1	131	16	7	0	-1	16
15	32	16	6	2	1	75	10	1	132	6	9	707.9	49	15
15	32	16	6	2	1	75	10	1	133	6	4	8.75	49	1
15	32	16	6	2	1	75	10	1	133	6	4	583.98	49	12
15	32	16	6	2	1	75	10	1	134	6	8	0	-1	16
15	32	16	6	2	1	75	10	1	135	6	7	83.09	49	2
15	32	16	6	2	1	75	10	1	136	6	3	62.01	49	2
15	32	16	6	2	1	75	10	1	136	6	3	732.51	49	15
15	32	16	6	2	1	75	10	1	137	6	6	10.33	49	1
15	32	16	6	2	1	75	10	1	137	6	6	668.69	49	14
15	32	16	6	2	1	75	10	1	138	6	1	9.92	49	1
15	32	16	6	2	1	75	10	1	139	16	3	110.01	49	3
15	32	16	6	2	1	75	10	1	140	16	1	0	-1	16
15	32	16	6	2	1	75	10	1	141	16	6	0	-1	16
15	32	16	6	2	1	75	10	1	142	6	7	744.52	49	15
15	32	16	6	2	1	75	10	1	143	6	2	8.18	49	1
15	32	16	6	2	1	75	10	1	144	16	10	157.62	49	4
15	32	16	6	2	1	75	10	1	145	6	10	714.48	49	15
15	32	16	6	2	1	75	10	1	146	6	4	7.97	49	1
15	32	16	6	2	1	75	10	1	146	6	4	684.92	49	14
15	32	16	6	2	1	75	10	1	147	6	5	7.46	49	1
15	32	16	6	2	1	75	10	1	148	6	1	23.65	49	1
15	32	16	6	2	1	75	10	1	149	6	9	70.07	49	2
15	32	16	6	2	1	75	10	1	149	6	9	786.32	49	16
15	32	16	6	2	1	75	10	1	150	6	6	11.37	49	1
15	32	16	6	2	1	75	10	1	150	6	6	776.41	49	16
15	32	16	6	2	1	75	10	1	151	6	3	10.76	49	1
15	32	16	6	2	1	75	10	1	152	6	8	160.46	49	4
15	32	16	6	2	1	75	10	1	153	6	7	130.04	49	3
15	32	16	6	2	1	75	10	1	154	6	9	59.17	49	2
15	32	16	6	2	1	75	10	1	155	6	4	9.05	49	1
15	32	16	6	2	1	75	10	1	156	6	2	20.01	49	1
15	32	16	6	2	1	75	10	1	157	6	10	207.09	49	5
15	32	16	6	2	1	75	10	1	157	6	10	408.02	49	9
15	32	16	6	2	1	75	10	1	157	6	10	740.57	49	15
15	32	16	6	2	1	75	10	1	158	6	5	7.61	49	1
15	32	16	6	2	1	75	10	1	158	6	5	672.42	49	14
15	32	16	6	2	1	75	10	1	159	6	1	7.88	49	1
15	32	16	6	2	1	75	10	1	159	6	1	707.37	49	15
15	32	16	6	2	1	75	10	1	160	6	3	7.79	49	1
15	32	16	6	2	1	75	10	1	160	6	3	687.44	49	14
15	32	16	6	2	1	75	10	1	161	16	4	8.74	49	1
15	32	16	6	2	1	75	10	1	162	6	6	608.94	49	13
15	32	16	6	2	1	75	10	1	163	16	8	0	-1	16
15	32	16	6	2	1	75	10	1	164	6	8	710.39	49	15
15	32	16	6	2	1	75	10	1	165	6	6	10.62	49	1
15	32	16	6	2	1	75	10	1	165	6	6	742.04	49	15
15	32	16	6	2	1	75	10	1	166	16	7	12.22	49	1
15	32	16	6	2	1	75	10	1	167	6	4	694.66	49	14
15	32	16	6	2	1	75	10	1	168	6	5	8.04	49	1
15	32	16	6	2	1	75	10	1	168	6	5	712.99	49	15
15	32	16	6	2	1	75	10	1	169	6	10	8.62	49	1
15	32	16	6	2	1	75	10	1	170	6	9	18.57	49	1
15	32	16	6	2	1	75	10	1	171	6	7	107.84	49	3
15	32	16	6	2	1	75	10	1	172	16	5	77.44	49	2
15	32	16	6	2	1	75	10	1	173	6	2	643.85	49	13
15	32	16	6	2	1	75	10	1	174	16	2	11.17	49	1
15	32	16	6	2	1	75	10	1	175	6	1	778.17	49	16
15	32	16	6	2	1	75	10	1	176	6	8	10.64	49	1
15	32	16	6	2	1	75	10	1	177	6	3	21.59	49	1
15	32	16	6	2	1	75	10	1	177	6	3	710.19	49	15
15	32	16	6	2	1	75	10	1	178	6	5	10.83	49	1
15	32	16	6	2	1	75	10	1	179	6	4	59.09	49	2
15	32	16	6	2	1	75	10	1	180	6	2	168.05	49	4
15	32	16	6	2	1	75	10	1	181	6	10	70.7	49	2
15	32	16	6	2	1	75	10	1	182	6	9	20.08	49	1
15	32	16	6	2	1	75	10	1	183	6	6	132.68	49	3
15	32	16	6	2	1	75	10	1	184	16	9	109.83	49	3
15	32	16	6	2	1	75	10	1	185	16	1	0	-1	16
15	32	16	6	2	1	75	10	1	186	6	8	0	-1	16
15	32	16	6	2	1	75	10	1	187	6	7	159.85	49	4
15	32	16	6	2	1	75	10	1	187	6	7	776.32	49	16
15	32	16	6	2	1	75	10	1	188	6	3	10.22	49	1
15	32	16	6	2	1	75	10	1	189	6	1	13.3	49	1
15	32	16	6	2	1	75	10	1	189	6	1	760.13	49	16
15	32	16	6	2	1	75	10	1	190	6	6	10.37	49	1
15	32	16	6	2	1	75	10	1	191	16	3	23.24	49	1
15	32	16	6	2	1	75	10	1	192	6	4	709.04	49	15
15	32	16	6	2	1	75	10	1	193	6	1	8.98	49	1
15	32	16	6	2	1	75	10	1	193	6	1	762.68	49	16
15	32	16	6	2	1	75	10	1	194	6	2	10.47	49	1
15	32	16	6	2	1	75	10	1	195	16	6	58.43	49	2
15	32	16	6	2	1	75	10	1	196	6	5	57.4	49	2
15	32	16	6	2	1	75	10	1	196	6	5	773.56	49	16
15	32	16	6	2	1	75	10	1	197	6	9	7.72	49	1
15	32	16	6	2	1	75	10	1	198	16	8	18.42	49	1
15	32	16	6	2	1	75	10	1	199	16	10	0	-1	16
15	32	16	6	2	1	75	10	1	200	6	10	0	-1	16
15	32	16	6	2	1	75	10	1	201	6	7	160.55	49	4
15	32	16	6	2	1	75	10	1	201	6	7	764.9	49	16
15	32	16	6	2	1	75	10	1	202	6	8	12.91	49	1
15	32	16	6	2	1	75	10	1	202	6	8	786.41	49	16
15	32	16	6	2	1	75	10	1	203	16	2	11.02	49	1
15	32	16	6	2	1	75	10	1	204	6	3	724.24	49	15
15	32	16	6	2	1	75	10	1	205	16	7	9.65	49	1
15	32	16	6	2	1	75	10	1	206	6	7	770.7	49	16
15	32	16	6	2	1	75	10	1	207	6	1	7.9	49	1
15	32	16	6	2	1	75	10	1	208	6	5	32.98	49	1
15	32	16	6	2	1	75	10	1	208	6	5	767.74	49	16
15	32	16	6	2	1	75	10	1	209	16	1	8.41	49	1
15	32	16	6	2	1	75	10	1	210	6	10	767.7	49	16
15	32	16	6	2	1	75	10	1	211	6	4	8.62	49	1
15	32	16	6	2	1	75	10	1	212	16	4	42.41	49	1
15	32	16	6	2	1	75	10	1	213	6	2	791.18	49	16
15	32	16	6	2	1	75	10	1	214	6	9	10.97	49	1
15	32	16	6	2	1	75	10	1	214	6	9	710.54	49	15
15	32	16	6	2	1	75	10	1	215	16	5	11	49	1
15	32	16	6	2	1	75	10	1	216	6	3	660.93	49	14
15	32	16	6	2	1	75	10	1	217	6	6	9.04	49	1
15	32	16	6	2	1	75	10	1	217	6	6	660.13	49	14
15	32	16	6	2	1	75	10	1	218	6	8	8.17	49	1
15	32	16	6	2	1	75	10	1	219	6	6	24.89	49	1
15	32	16	6	2	1	75	10	1	219	6	6	762.45	49	16
15	32	16	6	2	1	75	10	1	220	6	4	10.35	49	1
15	32	16	6	2	1	75	10	1	220	6	4	635.64	49	13
15	32	16	6	2	1	75	10	1	221	16	9	0	-1	16
15	32	16	6	2	1	75	10	1	222	6	9	607.22	49	13
15	32	16	6	2	1	75	10	1	223	6	10	639.72	49	13
15	32	16	6	2	1	75	10	1	224	6	1	759.94	49	16
15	32	16	6	2	1	75	10	1	225	16	3	10.52	49	1
15	32	16	6	2	1	75	10	1	226	6	2	711.85	49	15
15	32	16	6	2	1	75	10	1	227	6	7	12.83	49	1
15	32	16	6	2	1	75	10	1	228	6	5	159.63	49	4
15	32	16	6	2	1	75	10	1	228	6	5	660.14	49	14
15	32	16	6	2	1	75	10	1	229	6	8	10.95	49	1
15	32	16	6	2	1	75	10	1	230	6	3	120.37	49	3
15	32	16	6	2	1	75	10	1	230	6	3	359.75	49	8
15	32	16	6	2	1	75	10	1	230	6	3	782.43	49	16
15	32	16	6	2	1	75	10	1	231	6	6	8.68	49	1
15	32	16	6	2	1	75	10	1	231	6	6	757.37	49	16
15	32	16	6	2	1	75	10	1	232	16	6	7.9	49	1
15	32	16	6	2	1	75	10	1	233	16	7	0	-1	16
15	32	16	6	2	1	75	10	1	234	6	5	545.83	49	11
15	32	16	6	2	1	75	10	1	235	6	7	695.62	49	14
15	32	16	6	2	1	75	10	1	236	16	8	8.97	49	1
15	32	16	6	2	1	75	10	1	237	6	1	710.5	49	15
15	32	16	6	2	1	75	10	1	238	6	2	12.92	49	1
15	32	16	6	2	1	75	10	1	239	6	8	61.32	49	2
15	32	16	6	2	1	75	10	1	240	6	4	31.5	49	1
15	32	16	6	2	1	75	10	1	240	6	4	787.27	49	16
15	32	16	6	2	1	75	10	1	241	6	9	9.76	49	1
15	32	16	6	2	1	75	10	1	242	6	10	57.72	49	2
15	32	16	6	2	1	75	10	1	243	6	3	25.47	49	1
15	32	16	6	2	1	75	10	1	243	6	3	757.13	49	16
15	32	16	6	2	1	75	10	1	244	16	5	7.94	49	1
15	32	16	6	2	1	75	10	1	245	6	7	609.75	49	13
15	32	16	6	2	1	75	10	1	246	6	10	7.99	49	1
15	32	16	6	2	1	75	10	1	247	6	4	82.25	49	2
15	32	16	6	2	1	75	10	1	247	6	4	731.63	49	15
15	32	16	6	2	1	75	10	1	248	6	2	7.78	49	1
15	32	16	6	2	1	75	10	1	249	6	5	35.37	49	1
15	32	16	6	2	1	75	10	1	249	6	5	666.94	49	14
15	32	16	6	2	1	75	10	1	250	16	2	10.17	49	1
15	32	16	6	2	1	75	10	1	251	16	1	0	-1	16
15	32	16	6	2	1	75	10	1	252	6	1	691.43	49	14
15	32	16	6	2	1	75	10	1	253	16	4	10.24	49	1
15	32	16	6	2	1	75	10	1	254	6	9	610.04	49	13
15	32	16	6	2	1	75	10	1	255	6	6	657.6	49	14
15	32	16	6	2	1	75	10	1	256	6	3	7.74	49	1
15	32	16	6	2	1	75	10	1	256	6	3	671.64	49	14
15	32	16	6	2	1	75	10	1	257	6	8	7.78	49	1
15	32	16	6	2	1	75	10	1	257	6	8	773.62	49	16
15	32	16	6	2	1	75	10	1	258	6	6	7.46	49	1
15	32	16	6	2	1	75	10	1	258	6	6	721.93	49	15
15	32	16	6	2	1	75	10	1	259	6	2	8.4	49	1
15	32	16	6	2	1	75	10	1	260	6	7	80.65	49	2
15	32	16	6	2	1	75	10	1	261	16	9	160.23	49	4
15	32	16	6	2	1	75	10	1	262	6	8	620.91	49	13
15	32	16	6	2	1	75	10	1	263	6	5	10.51	49	1
15	32	16	6	2	1	75	10	1	263	6	5	624.1	49	13
15	32	16	6	2	1	75	10	1	264	6	9	11.22	49	1
15	32	16	6	2	1	75	10	1	264	6	9	660.53	49	14
15	32	16	6	2	1	75	10	1	265	16	10	10.47	49	1
15	32	16	6	2	1	75	10	1	266	6	1	616.09	49	13
15	32	16	6	2	1	75	10	1	267	6	4	0	-1	16
15	32	16	6	2	1	75	10	1	268	6	10	18.16	49	1
15	32	16	6	2	1	75	10	1	269	16	3	92.19	49	2
15	32	16	6	2	1	75	10	1	270	6	3	609.43	49	13
15	32	16	6	2	1	75	10	1	271	16	7	0	-1	16
15	32	16	6	2	1	75	10	1	272	6	6	584.38	49	12
15	32	16	6	2	1	75	10	1	273	16	1	0	-1	16
15	32	16	6	2	1	75	10	1	274	6	8	712.54	49	15
15	32	16	6	2	1	75	10	1	275	6	4	11.07	49	1
15	32	16	6	2	1	75	10	1	275	6	4	761.81	49	16
15	32	16	6	2	1	75	10	1	276	16	10	9.5	49	1
15	32	16	6	2	1	75	10	1	277	6	10	725.34	49	15
15	32	16	6	2	1	75	10	1	278	6	2	7.55	49	1
15	32	16	6	2	1	75	10	1	278	6	2	757.43	49	16
15	32	16	6	2	1	75	10	1	279	6	9	7.76	49	1
15	32	16	6	2	1	75	10	1	279	6	9	769.22	49	16
15	32	16	6	2	1	75	10	1	280	6	1	58.7	49	2
15	32	16	6	2	1	75	10	1	281	6	5	34.7	49	1
15	32	16	6	2	1	75	10	1	281	6	5	738.06	49	15
15	32	16	6	2	1	75	10	1	282	6	7	8.93	49	1
15	32	16	6	2	1	75	10	1	283	6	3	110.68	49	3
15	32	16	6	2	1	75	10	1	283	6	3	721.8	49	15
15	32	16	6	2	1	75	10	1	284	6	2	10.54	49	1
15	32	16	6	2	1	75	10	1	284	6	2	724.16	49	15
15	32	16	6	2	1	75	10	1	285	6	10	39.82	49	1
15	32	16	6	2	1	75	10	1	285	6	10	786.38	49	16
15	32	16	6	2	1	75	10	1	286	6	9	7.89	49	1
15	32	16	6	2	1	75	10	1	287	6	8	107.69	49	3
15	32	16	6	2	1	75	10	1	288	16	9	9.98	49	1
15	32	16	6	2	1	75	10	1	289	6	5	612.2	49	13
15	32	16	6	2	1	75	10	1	290	6	1	712.43	49	15
15	32	16	6	2	1	75	10	1	291	6	7	10.62	49	1
15	32	16	6	2	1	75	10	1	292	16	2	78.13	49	2
15	32	16	6	2	1	75	10	1	293	6	3	75.05	49	2
15	32	16	6	2	1	75	10	1	294	6	6	61.52	49	2
15	32	16	6	2	1	75	10	1	294	6	6	773.83	49	16
15	32	16	6	2	1	75	10	1	295	6	4	30.23	49	1
15	32	16	6	2	1	75	10	1	295	6	4	742.6	49	15
15	32	16	6	2	1	75	10	1	296	16	5	7.7	49	1
15	32	16	6	2	1	75	10	1	297	16	4	74.78	49	2
15	32	16	6	2	1	75	10	1	298	6	2	778.44	49	16
15	32	16	6	2	1	75	10	1	299	6	9	10.98	49	1
15	32	16	6	2	1	75	10	1	299	6	9	726.77	49	15
15	32	16	6	2	1	75	10	1	300	6	10	24.7	49	1
15	32	16	6	2	1	75	10	1	300	6	10	761.22	49	16
15	32	16	6	2	1	75	10	1	301	16	6	10.56	49	1
15	32	16	6	2	1	75	10	1	302	6	1	762.63	49	16
15	32	16	6	2	1	75	10	1	303	6	8	10.67	49	1
15	32	16	6	2	1	75	10	1	304	16	3	11.47	49	1
15	32	16	6	2	1	75	10	1	305	6	6	708.95	49	15
15	32	16	6	2	1	75	10	1	306	16	8	8.07	49	1
15	32	16	6	2	1	75	10	1	307	6	7	776.47	49	16
15	32	16	6	2	1	75	10	1	308	6	3	8.57	49	1
15	32	16	6	2	1	75	10	1	309	16	7	8.17	49	1
15	32	16	6	2	1	75	10	1	310	16	1	707.15	49	15
15	32	16	6	2	1	75	10	1	311	6	5	7.91	49	1
15	32	16	6	2	1	75	10	1	311	6	5	594.2	49	12
15	32	16	6	2	1	75	10	1	312	6	4	658.85	49	14
15	32	16	6	2	1	75	10	1	313	6	7	10.41	49	1
15	32	16	6	2	1	75	10	1	313	6	7	777.58	49	16
15	32	16	6	2	1	75	10	1	314	16	9	10.73	49	1
15	32	16	6	2	1	75	10	1	315	6	9	589.22	49	12
15	32	16	6	2	1	75	10	1	316	16	4	0	-1	16
15	32	16	6	2	1	75	10	1	317	6	2	786.6	49	16
15	32	16	6	2	1	75	10	1	318	6	4	8.69	49	1
15	32	16	6	2	1	75	10	1	318	6	4	791.25	49	16
15	32	16	6	2	1	75	10	1	319	16	5	7.75	49	1
15	32	16	6	2	1	75	10	1	320	6	5	559.31	49	12
15	32	16	6	2	1	75	10	1	321	6	1	708.16	49	15
15	32	16	6	2	1	75	10	1	322	6	10	11.02	49	1
15	32	16	6	2	1	75	10	1	323	16	10	34.47	49	1
15	32	16	6	2	1	75	10	1	324	16	2	0	-1	16
15	32	16	6	2	1	75	10	1	325	6	6	712.5	49	15
15	32	16	6	2	1	75	10	1	326	6	3	10.61	49	1
15	32	16	6	2	1	75	10	1	326	6	3	780.51	49	16
15	32	16	6	2	1	75	10	1	327	6	8	10.45	49	1
15	32	16	6	2	1	75	10	1	328	6	5	110.17	49	3
15	32	16	6	2	1	75	10	1	328	6	5	710.51	49	15
15	32	16	6	2	1	75	10	1	329	6	10	10.5	49	1
15	32	16	6	2	1	75	10	1	329	6	10	708.88	49	15
15	32	16	6	2	1	75	10	1	330	6	4	9.58	49	1
15	32	16	6	2	1	75	10	1	330	6	4	640.03	49	13
15	32	16	6	2	1	75	10	1	331	6	9	758.14	49	16
15	32	16	6	2	1	75	10	1	332	6	2	10.64	49	1
15	32	16	6	2	1	75	10	1	333	6	8	32.67	49	1
15	32	16	6	2	1	75	10	1	334	6	7	9.48	49	1
15	32	16	6	2	1	75	10	1	335	6	3	59.07	49	2
15	32	16	6	2	1	75	10	1	335	6	3	766.22	49	16
15	32	16	6	2	1	75	10	1	336	6	6	8.02	49	1
15	32	16	6	2	1	75	10	1	336	6	6	707.79	49	15
15	32	16	6	2	1	75	10	1	337	6	1	11.09	49	1
15	32	16	6	2	1	75	10	1	338	6	7	63.76	49	2
15	32	16	6	2	1	75	10	1	339	6	9	90.46	49	2
15	32	16	6	2	1	75	10	1	340	6	4	112.72	49	3
15	32	16	6	2	1	75	10	1	341	6	10	60.87	49	2
15	32	16	6	2	1	75	10	1	341	6	10	781.07	49	16
15	32	16	6	2	1	75	10	1	342	6	5	11.21	49	1
15	32	16	6	2	1	75	10	1	342	6	5	772.53	49	16
15	32	16	6	2	1	75	10	1	343	16	6	8.64	49	1
15	32	16	6	2	1	75	10	1	344	16	3	0	-1	16
15	32	16	6	2	1	75	10	1	345	16	8	0	-1	16
15	32	16	6	2	1	75	10	1	346	6	2	0	-1	16
15	32	16	6	2	1	75	10	1	347	16	2	12.05	49	1
15	32	16	6	2	1	75	10	1	348	6	1	710.55	49	15
15	32	16	6	2	1	75	10	1	349	6	3	8.58	49	1
15	32	16	6	2	1	75	10	1	349	6	3	714.18	49	15
15	32	16	6	2	1	75	10	1	350	6	6	12.63	49	1
15	32	16	6	2	1	75	10	1	350	6	6	673.7	49	14
15	32	16	6	2	1	75	10	1	351	6	8	11.43	49	1
15	32	16	6	2	1	75	10	1	352	6	2	61.2	49	2
15	32	16	6	2	1	75	10	1	353	6	9	68.74	49	2
15	32	16	6	2	1	75	10	1	353	6	9	730.71	49	15
15	32	16	6	2	1	75	10	1	354	6	10	11.78	49	1
15	32	16	6	2	1	75	10	1	355	6	7	81.22	49	2
15	32	16	6	2	1	75	10	1	356	16	9	142.27	49	3
15	32	16	6	2	1	75	10	1	357	6	1	618.3	49	13
15	32	16	6	2	1	75	10	1	358	6	6	627.37	49	13
15	32	16	6	2	1	75	10	1	359	6	5	759.7	49	16
15	32	16	6	2	1	75	10	1	360	6	8	10.07	49	1
15	32	16	6	2	1	75	10	1	360	6	8	764.07	49	16
15	32	16	6	2	1	75	10	1	361	6	3	8.64	49	1
15	32	16	6	2	1	75	10	1	361	6	3	708.38	49	15
15	32	16	6	2	1	75	10	1	362	6	4	7.71	49	1
15	32	16	6	2	1	75	10	1	363	6	5	41.52	49	1
15	32	16	6	2	1	75	10	1	363	6	5	759.83	49	16
15	32	16	6	2	1	75	10	1	364	6	2	12.71	49	1
15	32	16	6	2	1	75	10	1	364	6	2	760.54	49	16
15	32	16	6	2	1	75	10	1	365	16	10	11.37	49	1
15	32	16	6	2	1	75	10	1	366	6	10	268.76	49	6
15	32	16	6	2	1	75	10	1	367	6	9	25.46	49	1
15	32	16	6	2	1	75	10	1	367	6	9	758.8	49	16
15	32	16	6	2	1	75	10	1	368	6	4	11.03	49	1
15	32	16	6	2	1	75	10	1	369	6	3	10.69	49	1
15	32	16	6	2	1	75	10	1	369	6	3	778.87	49	16
15	32	16	6	2	1	75	10	1	370	6	8	7.71	49	1
15	32	16	6	2	1	75	10	1	371	6	7	264.84	49	6
15	32	16	6	2	1	75	10	1	372	6	6	78.64	49	2
15	32	16	6	2	1	75	10	1	372	6	6	787.52	49	16
15	32	16	6	2	1	75	10	1	373	6	1	8.24	49	1
15	32	16	6	2	1	75	10	1	373	6	1	781.86	49	16
15	32	16	6	2	1	75	10	1	374	6	2	8.84	49	1
15	32	16	6	2	1	75	10	1	375	6	10	112.4	49	3
15	32	16	6	2	1	75	10	1	376	6	9	129.92	49	3
15	32	16	6	2	1	75	10	1	377	6	7	114.24	49	3
15	32	16	6	2	1	75	10	1	378	16	7	81.7	49	2
15	32	16	6	2	1	75	10	1	379	16	3	0	-1	16
15	32	16	6	2	1	75	10	1	380	16	5	0	-1	16
15	32	16	6	2	1	75	10	1	381	6	5	564.19	49	12
15	32	16	6	2	1	75	10	1	382	16	6	0	-1	16
15	32	16	6	2	1	75	10	1	383	6	8	714.6	49	15
15	32	16	6	2	1	75	10	1	384	6	1	7.68	49	1
15	32	16	6	2	1	75	10	1	384	6	1	783.28	49	16
15	32	16	6	2	1	75	10	1	385	6	6	8.42	49	1
15	32	16	6	2	1	75	10	1	385	6	6	793.87	49	16
15	32	16	6	2	1	75	10	1	386	6	3	8.67	49	1
15	32	16	6	2	1	75	10	1	386	6	3	708.39	49	15
15	32	16	6	2	1	75	10	1	387	16	8	9.42	49	1
15	32	16	6	2	1	75	10	1	388	6	4	0	-1	16
15	32	16	6	2	1	75	10	1	389	6	7	10.23	49	1
15	32	16	6	2	1	75	10	1	390	6	1	13.01	49	1
15	32	16	6	2	1	75	10	1	391	6	2	159.63	49	4
15	32	16	6	2	1	75	10	1	392	6	5	189.39	49	4
15	32	16	6	2	1	75	10	1	392	6	5	768.67	49	16
15	32	16	6	2	1	75	10	1	393	16	1	8.29	49	1
15	32	16	6	2	1	75	10	1	394	6	10	81.11	49	2
15	32	16	6	2	1	75	10	1	395	16	4	185.36	49	4
15	32	16	6	2	1	75	10	1	396	6	4	675.17	49	14
15	32	16	6	2	1	75	10	1	397	6	9	7.92	49	1
15	32	16	6	2	1	75	10	1	397	6	9	660.18	49	14
15	32	16	6	2	1	75	10	1	398	6	6	735.55	49	15
15	32	16	6	2	1	75	10	1	399	6	3	7.96	49	1
15	32	16	6	2	1	75	10	1	399	6	3	759.01	49	16
15	32	16	6	2	1	75	10	1	400	6	8	10.4	49	1
15	32	16	6	2	1	75	10	1	401	16	5	260.93	49	6
15	32	16	6	2	1	75	10	1	402	6	6	660.35	49	14
15	32	16	6	2	1	75	10	1	403	16	9	11.22	49	1
15	32	16	6	2	1	75	10	1	404	6	10	730.04	49	15
15	32	16	6	2	1	75	10	1	405	6	9	9.06	49	1
15	32	16	6	2	1	75	10	1	405	6	9	746.36	49	15
15	32	16	6	2	1	75	10	1	406	16	2	7.97	49	1
15	32	16	6	2	1	75	10	1	407	16	10	690.33	49	14
15	32	16	6	2	1	75	10	1	408	6	5	7.88	49	1
15	32	16	6	2	1	75	10	1	408	6	5	583.27	49	12
15	32	16	6	2	1	75	10	1	409	16	4	0	-1	16
15	32	16	6	2	1	75	10	1	410	16	6	0	-1	16
15	32	16	6	2	1	75	10	1	411	6	7	0	-1	16
15	32	16	6	2	1	75	10	1	412	16	7	34.76	49	1
15	32	16	6	2	1	75	10	1	413	6	4	729.53	49	15
15	32	16	6	2	1	75	10	1	414	16	8	10.77	49	1
15	32	16	6	2	1	75	10	1	415	6	2	767.42	49	16
15	32	16	6	2	1	75	10	1	416	6	1	12.82	49	1
15	32	16	6	2	1	75	10	1	417	6	8	61.58	49	2
15	32	16	6	2	1	75	10	1	418	6	3	8.8	49	1
15	32	16	6	2	1	75	10	1	419	6	2	9.36	49	1
15	32	16	6	2	1	75	10	1	419	6	2	759.05	49	16
15	32	16	6	2	1	75	10	1	420	6	10	9.2	49	1
15	32	16	6	2	1	75	10	1	421	16	3	58.3	49	2
15	32	16	6	2	1	75	10	1	422	6	9	709.21	49	15
15	32	16	6	2	1	75	10	1	423	16	1	9.93	49	1
15	32	16	6	2	1	75	10	1	424	6	7	772.89	49	16
15	32	16	6	2	1	75	10	1	425	6	6	13.11	49	1
15	32	16	6	2	1	75	10	1	425	6	6	713.55	49	15
15	32	16	6	2	1	75	10	1	426	16	6	10.75	49	1
15	32	16	6	2	1	75	10	1	427	6	5	589.66	49	12
15	32	16	6	2	1	75	10	1	428	16	7	0	-1	16
15	32	16	6	2	1	75	10	1	429	6	8	686.09	49	14
15	32	16	6	2	1	75	10	1	430	6	1	782.17	49	16
15	32	16	6	2	1	75	10	1	431	16	1	8.72	49	1
15	32	16	6	2	1	75	10	1	432	6	3	707.19	49	15
15	32	16	6	2	1	75	10	1	433	6	4	11.14	49	1
15	32	16	6	2	1	75	10	1	434	6	6	38.76	49	1
15	32	16	6	2	1	75	10	1	434	6	6	679.03	49	14
15	32	16	6	2	1	75	10	1	435	6	1	0	-1	16
15	32	16	6	2	1	75	10	1	436	6	4	123.6	49	3
15	32	16	6	2	1	75	10	1	437	6	10	15.16	49	1
15	32	16	6	2	1	75	10	1	437	6	10	723.81	49	15
15	32	16	6	2	1	75	10	1	438	6	5	10.84	49	1
15	32	16	6	2	1	75	10	1	438	6	5	689.41	49	14
15	32	16	6	2	1	75	10	1	439	16	10	11.43	49	1
15	32	16	6	2	1	75	10	1	440	6	7	9.43	49	1
15	32	16	6	2	1	75	10	1	440	6	7	610.97	49	13
15	32	16	6	2	1	75	10	1	441	6	2	742.55	49	15
15	32	16	6	2	1	75	10	1	442	6	9	8.23	49	1
15	32	16	6	2	1	75	10	1	442	6	9	769.92	49	16
15	32	16	6	2	1	75	10	1	443	6	8	8.53	49	1
15	32	16	6	2	1	75	10	1	443	6	8	681.46	49	14
15	32	16	6	2	1	75	10	1	444	6	3	7.77	49	1
15	32	16	6	2	1	75	10	1	444	6	3	674.01	49	14
15	32	16	6	2	1	75	10	1	445	6	5	8.43	49	1
15	32	16	6	2	1	75	10	1	445	6	5	595.04	49	12
15	32	16	6	2	1	75	10	1	446	6	4	571.53	49	12
15	32	16	6	2	1	75	10	1	447	6	9	0	-1	16
15	32	16	6	2	1	75	10	1	448	6	2	83.75	49	2
15	32	16	6	2	1	75	10	1	449	6	10	238.32	49	5
15	32	16	6	2	1	75	10	1	450	6	8	60.65	49	2
