SubjectNum	Age	Gender	PressedTask	Block Type	Block Repeat Num	Response Rate	Onset	Block	Trial	ImgType	ImgNum	RT	PressedC	FrameC
15	32	16	6	2	1	75	10	1	1	6	5	493.68	49	9
15	32	16	6	2	1	75	10	1	2	6	10	163.63	49	4
15	32	16	6	2	1	75	10	1	3	6	4	116.59	49	3
15	32	16	6	2	1	75	10	1	4	6	9	143.27	49	3
15	32	16	6	2	1	75	10	1	5	16	7	24.03	49	1
15	32	16	6	2	1	75	10	1	6	6	2	779.43	49	16
15	32	16	6	2	1	75	10	1	7	6	3	10.54	49	1
15	32	16	6	2	1	75	10	1	7	6	3	777.64	49	16
15	32	16	6	2	1	75	10	1	8	16	9	10.42	49	1
15	32	16	6	2	1	75	10	1	9	6	8	639.68	49	13
15	32	16	6	2	1	75	10	1	10	16	2	0	-1	16
15	32	16	6	2	1	75	10	1	11	6	7	0	-1	16
15	32	16	6	2	1	75	10	1	12	6	6	32.26	49	1
15	32	16	6	2	1	75	10	1	12	6	6	708.48	49	15
15	32	16	6	2	1	75	10	1	13	6	1	7.89	49	1
15	32	16	6	2	1	75	10	1	13	6	1	676.49	49	14
15	32	16	6	2	1	75	10	1	14	16	5	7.7	49	1
15	32	16	6	2	1	75	10	1	15	6	5	559.83	49	12
15	32	16	6	2	1	75	10	1	16	6	2	0	-1	16
15	32	16	6	2	1	75	10	1	17	6	4	45.45	49	1
15	32	16	6	2	1	75	10	1	17	6	4	644.8	49	13
15	32	16	6	2	1	75	10	1	18	6	9	0	-1	16
15	32	16	6	2	1	75	10	1	19	6	10	10.62	49	1
15	32	16	6	2	1	75	10	1	19	6	10	759.68	49	16
15	32	16	6	2	1	75	10	1	20	16	1	11.11	49	1
15	32	16	6	2	1	75	10	1	21	6	3	680.67	49	14
15	32	16	6	2	1	75	10	1	22	16	10	10.41	49	1
15	32	16	6	2	1	75	10	1	23	6	7	541.96	49	11
15	32	16	6	2	1	75	10	1	24	16	4	0	-1	16
15	32	16	6	2	1	75	10	1	25	6	8	713.11	49	15
15	32	16	6	2	1	75	10	1	26	16	3	8.21	49	1
15	32	16	6	2	1	75	10	1	27	6	6	639.98	49	13
15	32	16	6	2	1	75	10	1	28	6	1	7.66	49	1
15	32	16	6	2	1	75	10	1	28	6	1	722.91	49	15
15	32	16	6	2	1	75	10	1	29	6	6	7.68	49	1
15	32	16	6	2	1	75	10	1	29	6	6	737.67	49	15
15	32	16	6	2	1	75	10	1	30	6	1	8.1	49	1
15	32	16	6	2	1	75	10	1	30	6	1	707.92	49	15
15	32	16	6	2	1	75	10	1	31	16	6	8.22	49	1
15	32	16	6	2	1	75	10	1	32	6	9	775.63	49	16
15	32	16	6	2	1	75	10	1	33	6	8	10.54	49	1
15	32	16	6	2	1	75	10	1	34	6	10	11.4	49	1
15	32	16	6	2	1	75	10	1	35	16	8	111.54	49	3
15	32	16	6	2	1	75	10	1	36	6	7	763.38	49	16
15	32	16	6	2	1	75	10	1	37	6	4	9.04	49	1
15	32	16	6	2	1	75	10	1	37	6	4	710.79	49	15
15	32	16	6	2	1	75	10	1	38	6	2	7.83	49	1
15	32	16	6	2	1	75	10	1	39	6	5	119.66	49	3
15	32	16	6	2	1	75	10	1	39	6	5	710.05	49	15
15	32	16	6	2	1	75	10	1	40	16	7	7.78	49	1
15	32	16	6	2	1	75	10	1	41	16	4	460.75	49	10
15	32	16	6	2	1	75	10	1	42	6	3	736.44	49	15
15	32	16	6	2	1	75	10	1	43	6	7	8.51	49	1
15	32	16	6	2	1	75	10	1	44	6	5	132.47	49	3
15	32	16	6	2	1	75	10	1	44	6	5	742.38	49	15
15	32	16	6	2	1	75	10	1	45	6	2	12.98	49	1
15	32	16	6	2	1	75	10	1	46	6	1	14.27	49	1
15	32	16	6	2	1	75	10	1	46	6	1	760.31	49	16
15	32	16	6	2	1	75	10	1	47	6	9	10.73	49	1
15	32	16	6	2	1	75	10	1	47	6	9	611.34	49	13
15	32	16	6	2	1	75	10	1	48	6	4	668.9	49	14
15	32	16	6	2	1	75	10	1	49	16	5	8.17	49	1
15	32	16	6	2	1	75	10	1	50	16	1	0	-1	16
15	32	16	6	2	1	75	10	1	51	6	10	0	-1	16
15	32	16	6	2	1	75	10	1	52	6	6	94.43	49	2
15	32	16	6	2	1	75	10	1	52	6	6	769.5	49	16
15	32	16	6	2	1	75	10	1	53	6	3	7.98	49	1
15	32	16	6	2	1	75	10	1	53	6	3	757.42	49	16
15	32	16	6	2	1	75	10	1	54	6	8	9.15	49	1
15	32	16	6	2	1	75	10	1	55	16	2	209.02	49	5
15	32	16	6	2	1	75	10	1	56	6	2	675.76	49	14
15	32	16	6	2	1	75	10	1	57	6	10	9.86	49	1
15	32	16	6	2	1	75	10	1	58	6	9	180.09	49	4
15	32	16	6	2	1	75	10	1	59	16	10	116.11	49	3
15	32	16	6	2	1	75	10	1	60	6	1	575.44	49	12
15	32	16	6	2	1	75	10	1	61	6	8	0	-1	16
15	32	16	6	2	1	75	10	1	62	6	3	31.67	49	1
15	32	16	6	2	1	75	10	1	63	6	6	8.23	49	1
15	32	16	6	2	1	75	10	1	64	6	5	18.81	49	1
15	32	16	6	2	1	75	10	1	64	6	5	731.63	49	15
15	32	16	6	2	1	75	10	1	65	6	7	7.55	49	1
15	32	16	6	2	1	75	10	1	65	6	7	786.53	49	16
15	32	16	6	2	1	75	10	1	66	6	4	8.2	49	1
15	32	16	6	2	1	75	10	1	67	6	7	60.39	49	2
15	32	16	6	2	1	75	10	1	67	6	7	795.66	49	16
15	32	16	6	2	1	75	10	1	68	6	4	7.84	49	1
15	32	16	6	2	1	75	10	1	69	6	10	108.9	49	3
15	32	16	6	2	1	75	10	1	69	6	10	309.92	49	7
15	32	16	6	2	1	75	10	1	70	6	2	70.33	49	2
15	32	16	6	2	1	75	10	1	71	6	1	172.24	49	4
15	32	16	6	2	1	75	10	1	72	6	9	11.46	49	1
15	32	16	6	2	1	75	10	1	72	6	9	710.05	49	15
15	32	16	6	2	1	75	10	1	73	6	5	12.12	49	1
15	32	16	6	2	1	75	10	1	73	6	5	632.57	49	13
15	32	16	6	2	1	75	10	1	74	6	6	11.62	49	1
15	32	16	6	2	1	75	10	1	74	6	6	560.44	49	12
15	32	16	6	2	1	75	10	1	75	6	3	609.67	49	13
15	32	16	6	2	1	75	10	1	76	6	8	7.95	49	1
15	32	16	6	2	1	75	10	1	77	6	5	207.81	49	5
15	32	16	6	2	1	75	10	1	77	6	5	783.32	49	16
15	32	16	6	2	1	75	10	1	78	16	9	10.33	49	1
15	32	16	6	2	1	75	10	1	78	16	9	707.28	49	15
15	32	16	6	2	1	75	10	1	79	16	6	7.92	49	1
15	32	16	6	2	1	75	10	1	80	16	3	0	-1	16
15	32	16	6	2	1	75	10	1	81	16	8	0	-1	16
15	32	16	6	2	1	75	10	1	82	6	4	0	-1	16
15	32	16	6	2	1	75	10	1	83	16	7	17.13	49	1
15	32	16	6	2	1	75	10	1	84	6	10	709.78	49	15
15	32	16	6	2	1	75	10	1	85	6	2	12.68	49	1
15	32	16	6	2	1	75	10	1	85	6	2	762.24	49	16
15	32	16	6	2	1	75	10	1	86	6	9	12.56	49	1
15	32	16	6	2	1	75	10	1	87	6	7	89.86	49	2
15	32	16	6	2	1	75	10	1	88	6	8	44.46	49	1
15	32	16	6	2	1	75	10	1	89	6	6	39.07	49	1
15	32	16	6	2	1	75	10	1	90	6	3	60.3	49	2
15	32	16	6	2	1	75	10	1	90	6	3	744.64	49	15
15	32	16	6	2	1	75	10	1	91	6	1	7.84	49	1
15	32	16	6	2	1	75	10	1	91	6	1	666.2	49	14
15	32	16	6	2	1	75	10	1	92	6	7	8.2	49	1
15	32	16	6	2	1	75	10	1	92	6	7	615.58	49	13
15	32	16	6	2	1	75	10	1	93	16	9	8.54	49	1
15	32	16	6	2	1	75	10	1	94	6	5	708.99	49	15
15	32	16	6	2	1	75	10	1	95	6	2	8.58	49	1
15	32	16	6	2	1	75	10	1	96	6	1	87.45	49	2
15	32	16	6	2	1	75	10	1	97	6	9	36.91	49	1
15	32	16	6	2	1	75	10	1	98	16	2	68.34	49	2
15	32	16	6	2	1	75	10	1	99	6	4	612.89	49	13
15	32	16	6	2	1	75	10	1	100	16	4	0	-1	16
15	32	16	6	2	1	75	10	1	101	6	10	632.72	49	13
15	32	16	6	2	1	75	10	1	102	6	3	8.44	49	1
15	32	16	6	2	1	75	10	1	102	6	3	708.19	49	15
15	32	16	6	2	1	75	10	1	103	6	6	7.79	49	1
15	32	16	6	2	1	75	10	1	103	6	6	682.7	49	14
15	32	16	6	2	1	75	10	1	104	6	8	7.98	49	1
15	32	16	6	2	1	75	10	1	105	6	5	65.96	49	2
15	32	16	6	2	1	75	10	1	105	6	5	745.52	49	15
15	32	16	6	2	1	75	10	1	106	6	9	10.44	49	1
15	32	16	6	2	1	75	10	1	106	6	9	636.82	49	13
15	32	16	6	2	1	75	10	1	107	16	10	7.92	49	1
15	32	16	6	2	1	75	10	1	107	16	10	688.07	49	14
15	32	16	6	2	1	75	10	1	108	6	4	13.5	49	1
15	32	16	6	2	1	75	10	1	108	6	4	559.99	49	12
15	32	16	6	2	1	75	10	1	109	16	1	0	-1	16
15	32	16	6	2	1	75	10	1	110	6	2	0	-1	16
15	32	16	6	2	1	75	10	1	111	6	10	62.67	49	2
15	32	16	6	2	1	75	10	1	111	6	10	778.17	49	16
15	32	16	6	2	1	75	10	1	112	6	6	9.93	49	1
15	32	16	6	2	1	75	10	1	112	6	6	780.18	49	16
15	32	16	6	2	1	75	10	1	113	16	5	9.56	49	1
15	32	16	6	2	1	75	10	1	114	6	3	683.43	49	14
15	32	16	6	2	1	75	10	1	115	6	7	7.44	49	1
15	32	16	6	2	1	75	10	1	115	6	7	672.34	49	14
15	32	16	6	2	1	75	10	1	116	16	3	10.11	49	1
15	32	16	6	2	1	75	10	1	117	16	6	441.18	49	9
15	32	16	6	2	1	75	10	1	118	16	8	0	-1	16
15	32	16	6	2	1	75	10	1	119	6	8	738.06	49	15
15	32	16	6	2	1	75	10	1	120	6	1	8.68	49	1
15	32	16	6	2	1	75	10	1	120	6	1	758.64	49	16
15	32	16	6	2	1	75	10	1	121	16	5	10.29	49	1
15	32	16	6	2	1	75	10	1	122	6	5	609.47	49	13
15	32	16	6	2	1	75	10	1	123	6	2	777.9	49	16
15	32	16	6	2	1	75	10	1	124	16	4	12.65	49	1
15	32	16	6	2	1	75	10	1	125	16	9	0	-1	16
15	32	16	6	2	1	75	10	1	126	16	10	0	-1	16
15	32	16	6	2	1	75	10	1	127	6	10	612.32	49	13
15	32	16	6	2	1	75	10	1	128	16	2	7.68	49	1
15	32	16	6	2	1	75	10	1	129	16	6	0	-1	16
15	32	16	6	2	1	75	10	1	130	16	8	0	-1	16
15	32	16	6	2	1	75	10	1	131	16	7	0	-1	16
15	32	16	6	2	1	75	10	1	132	6	9	0	-1	16
15	32	16	6	2	1	75	10	1	133	6	4	26.29	49	1
15	32	16	6	2	1	75	10	1	133	6	4	562.7	49	12
15	32	16	6	2	1	75	10	1	134	6	8	736.21	49	15
15	32	16	6	2	1	75	10	1	135	6	7	10.53	49	1
15	32	16	6	2	1	75	10	1	135	6	7	764.55	49	16
15	32	16	6	2	1	75	10	1	136	6	3	10.86	49	1
15	32	16	6	2	1	75	10	1	137	6	6	41.39	49	1
15	32	16	6	2	1	75	10	1	137	6	6	738.62	49	15
15	32	16	6	2	1	75	10	1	138	6	1	10	49	1
15	32	16	6	2	1	75	10	1	139	16	3	108.46	49	3
15	32	16	6	2	1	75	10	1	140	16	1	0	-1	16
15	32	16	6	2	1	75	10	1	141	16	6	0	-1	16
15	32	16	6	2	1	75	10	1	142	6	7	676.19	49	14
15	32	16	6	2	1	75	10	1	143	6	2	7.87	49	1
15	32	16	6	2	1	75	10	1	143	6	2	691.3	49	14
15	32	16	6	2	1	75	10	1	144	16	10	7.6	49	1
15	32	16	6	2	1	75	10	1	144	16	10	591.03	49	12
15	32	16	6	2	1	75	10	1	145	6	10	614.12	49	13
15	32	16	6	2	1	75	10	1	146	6	4	678.47	49	14
15	32	16	6	2	1	75	10	1	147	6	5	8.16	49	1
15	32	16	6	2	1	75	10	1	147	6	5	685.78	49	14
15	32	16	6	2	1	75	10	1	148	6	1	12.77	49	1
15	32	16	6	2	1	75	10	1	148	6	1	733.84	49	15
15	32	16	6	2	1	75	10	1	149	6	9	12.79	49	1
15	32	16	6	2	1	75	10	1	149	6	9	681.26	49	14
15	32	16	6	2	1	75	10	1	150	6	6	11.03	49	1
15	32	16	6	2	1	75	10	1	150	6	6	639.27	49	13
15	32	16	6	2	1	75	10	1	151	6	3	9.56	49	1
15	32	16	6	2	1	75	10	1	151	6	3	680.16	49	14
15	32	16	6	2	1	75	10	1	152	6	8	8.63	49	1
15	32	16	6	2	1	75	10	1	153	6	7	38.69	49	1
15	32	16	6	2	1	75	10	1	153	6	7	796.33	49	16
15	32	16	6	2	1	75	10	1	154	6	9	8.13	49	1
15	32	16	6	2	1	75	10	1	154	6	9	790.54	49	16
15	32	16	6	2	1	75	10	1	155	6	4	8.15	49	1
15	32	16	6	2	1	75	10	1	155	6	4	732.08	49	15
15	32	16	6	2	1	75	10	1	156	6	2	7.82	49	1
15	32	16	6	2	1	75	10	1	156	6	2	739.28	49	15
15	32	16	6	2	1	75	10	1	157	6	10	7.72	49	1
15	32	16	6	2	1	75	10	1	157	6	10	659.9	49	14
15	32	16	6	2	1	75	10	1	158	6	5	8.34	49	1
15	32	16	6	2	1	75	10	1	158	6	5	614.35	49	13
15	32	16	6	2	1	75	10	1	159	6	1	668.75	49	14
15	32	16	6	2	1	75	10	1	160	6	3	10.41	49	1
15	32	16	6	2	1	75	10	1	160	6	3	536.62	49	11
15	32	16	6	2	1	75	10	1	161	16	4	560.87	49	12
15	32	16	6	2	1	75	10	1	162	6	6	710.31	49	15
15	32	16	6	2	1	75	10	1	163	16	8	12.81	49	1
15	32	16	6	2	1	75	10	1	164	6	8	760.67	49	16
15	32	16	6	2	1	75	10	1	165	6	6	10.05	49	1
15	32	16	6	2	1	75	10	1	165	6	6	760.87	49	16
15	32	16	6	2	1	75	10	1	166	16	7	7.71	49	1
15	32	16	6	2	1	75	10	1	167	6	4	579.88	49	12
15	32	16	6	2	1	75	10	1	168	6	5	668.28	49	14
15	32	16	6	2	1	75	10	1	169	6	10	8.44	49	1
15	32	16	6	2	1	75	10	1	169	6	10	710.42	49	15
15	32	16	6	2	1	75	10	1	170	6	9	7.71	49	1
15	32	16	6	2	1	75	10	1	170	6	9	626.5	49	13
15	32	16	6	2	1	75	10	1	171	6	7	8.99	49	1
15	32	16	6	2	1	75	10	1	171	6	7	666.62	49	14
15	32	16	6	2	1	75	10	1	172	16	5	10.77	49	1
15	32	16	6	2	1	75	10	1	173	6	2	432.49	49	9
15	32	16	6	2	1	75	10	1	174	16	2	0	-1	16
15	32	16	6	2	1	75	10	1	175	6	1	683.56	49	14
15	32	16	6	2	1	75	10	1	176	6	8	9.64	49	1
15	32	16	6	2	1	75	10	1	176	6	8	742.77	49	15
15	32	16	6	2	1	75	10	1	177	6	3	9.75	49	1
15	32	16	6	2	1	75	10	1	177	6	3	660.79	49	14
15	32	16	6	2	1	75	10	1	178	6	5	10.57	49	1
15	32	16	6	2	1	75	10	1	178	6	5	619.43	49	13
15	32	16	6	2	1	75	10	1	179	6	4	710.01	49	15
15	32	16	6	2	1	75	10	1	180	6	2	8.18	49	1
15	32	16	6	2	1	75	10	1	180	6	2	687.85	49	14
15	32	16	6	2	1	75	10	1	181	6	10	7.89	49	1
15	32	16	6	2	1	75	10	1	181	6	10	664.62	49	14
15	32	16	6	2	1	75	10	1	182	6	9	7.89	49	1
15	32	16	6	2	1	75	10	1	182	6	9	783.51	49	16
15	32	16	6	2	1	75	10	1	183	6	6	10.51	49	1
15	32	16	6	2	1	75	10	1	183	6	6	775.83	49	16
15	32	16	6	2	1	75	10	1	184	16	9	8.2	49	1
15	32	16	6	2	1	75	10	1	185	16	1	0	-1	16
15	32	16	6	2	1	75	10	1	186	6	8	0	-1	16
15	32	16	6	2	1	75	10	1	187	6	7	73.35	49	2
15	32	16	6	2	1	75	10	1	188	6	3	10.61	49	1
15	32	16	6	2	1	75	10	1	188	6	3	760.99	49	16
15	32	16	6	2	1	75	10	1	189	6	1	8.87	49	1
15	32	16	6	2	1	75	10	1	189	6	1	719.29	49	15
15	32	16	6	2	1	75	10	1	190	6	6	9.47	49	1
15	32	16	6	2	1	75	10	1	191	16	3	8.02	49	1
15	32	16	6	2	1	75	10	1	192	6	4	622.46	49	13
15	32	16	6	2	1	75	10	1	193	6	1	11.84	49	1
15	32	16	6	2	1	75	10	1	193	6	1	662.52	49	14
15	32	16	6	2	1	75	10	1	194	6	2	10.52	49	1
15	32	16	6	2	1	75	10	1	194	6	2	624.36	49	13
15	32	16	6	2	1	75	10	1	195	16	6	9.14	49	1
15	32	16	6	2	1	75	10	1	196	6	5	677.7	49	14
15	32	16	6	2	1	75	10	1	197	6	9	10.44	49	1
15	32	16	6	2	1	75	10	1	198	16	8	12.59	49	1
15	32	16	6	2	1	75	10	1	199	16	10	760.22	49	16
15	32	16	6	2	1	75	10	1	200	6	10	11.03	49	1
15	32	16	6	2	1	75	10	1	200	6	10	787.56	49	16
15	32	16	6	2	1	75	10	1	201	6	7	9.56	49	1
15	32	16	6	2	1	75	10	1	202	6	8	119.19	49	3
15	32	16	6	2	1	75	10	1	203	16	2	77.29	49	2
15	32	16	6	2	1	75	10	1	204	6	3	8.1	49	1
15	32	16	6	2	1	75	10	1	205	16	7	8.03	49	1
15	32	16	6	2	1	75	10	1	206	6	7	413.06	49	9
15	32	16	6	2	1	75	10	1	207	6	1	757.92	49	16
15	32	16	6	2	1	75	10	1	208	6	5	9.35	49	1
15	32	16	6	2	1	75	10	1	209	16	1	11.18	49	1
15	32	16	6	2	1	75	10	1	210	6	10	60.83	49	2
15	32	16	6	2	1	75	10	1	211	6	4	231.01	49	5
15	32	16	6	2	1	75	10	1	212	16	4	109.95	49	3
15	32	16	6	2	1	75	10	1	213	6	2	627.24	49	13
15	32	16	6	2	1	75	10	1	214	6	9	9.19	49	1
15	32	16	6	2	1	75	10	1	214	6	9	734.51	49	15
15	32	16	6	2	1	75	10	1	215	16	5	8.32	49	1
15	32	16	6	2	1	75	10	1	216	6	3	707.34	49	15
15	32	16	6	2	1	75	10	1	217	6	6	7.88	49	1
15	32	16	6	2	1	75	10	1	218	6	8	72.81	49	2
15	32	16	6	2	1	75	10	1	219	6	6	194.07	49	4
15	32	16	6	2	1	75	10	1	220	6	4	226.37	49	5
15	32	16	6	2	1	75	10	1	221	16	9	171.57	49	4
15	32	16	6	2	1	75	10	1	222	6	9	508.31	49	11
15	32	16	6	2	1	75	10	1	223	6	10	661.08	49	14
15	32	16	6	2	1	75	10	1	224	6	1	722.88	49	15
15	32	16	6	2	1	75	10	1	225	16	3	10.66	49	1
15	32	16	6	2	1	75	10	1	226	6	2	621.66	49	13
15	32	16	6	2	1	75	10	1	227	6	7	744.17	49	15
15	32	16	6	2	1	75	10	1	228	6	5	10.76	49	1
15	32	16	6	2	1	75	10	1	228	6	5	760.43	49	16
15	32	16	6	2	1	75	10	1	229	6	8	8.18	49	1
15	32	16	6	2	1	75	10	1	229	6	8	771.14	49	16
15	32	16	6	2	1	75	10	1	230	6	3	7.78	49	1
15	32	16	6	2	1	75	10	1	231	6	6	43.35	49	1
15	32	16	6	2	1	75	10	1	232	16	6	157.11	49	4
15	32	16	6	2	1	75	10	1	233	16	7	386.28	49	8
15	32	16	6	2	1	75	10	1	234	6	5	670.32	49	14
15	32	16	6	2	1	75	10	1	235	6	7	13.28	49	1
15	32	16	6	2	1	75	10	1	235	6	7	738.17	49	15
15	32	16	6	2	1	75	10	1	236	16	8	12.81	49	1
15	32	16	6	2	1	75	10	1	237	6	1	640.84	49	13
15	32	16	6	2	1	75	10	1	238	6	2	0	-1	16
15	32	16	6	2	1	75	10	1	239	6	8	34.68	49	1
15	32	16	6	2	1	75	10	1	239	6	8	688.35	49	14
15	32	16	6	2	1	75	10	1	240	6	4	9.02	49	1
15	32	16	6	2	1	75	10	1	240	6	4	660.13	49	14
15	32	16	6	2	1	75	10	1	241	6	9	7.88	49	1
15	32	16	6	2	1	75	10	1	241	6	9	644.87	49	13
15	32	16	6	2	1	75	10	1	242	6	10	8.29	49	1
15	32	16	6	2	1	75	10	1	242	6	10	715.62	49	15
15	32	16	6	2	1	75	10	1	243	6	3	10.26	49	1
15	32	16	6	2	1	75	10	1	243	6	3	670.14	49	14
15	32	16	6	2	1	75	10	1	244	16	5	7.77	49	1
15	32	16	6	2	1	75	10	1	245	6	7	683.62	49	14
15	32	16	6	2	1	75	10	1	246	6	10	7.96	49	1
15	32	16	6	2	1	75	10	1	247	6	4	43.92	49	1
15	32	16	6	2	1	75	10	1	247	6	4	708.45	49	15
15	32	16	6	2	1	75	10	1	248	6	2	11.23	49	1
15	32	16	6	2	1	75	10	1	248	6	2	765.49	49	16
15	32	16	6	2	1	75	10	1	249	6	5	10.81	49	1
15	32	16	6	2	1	75	10	1	249	6	5	613.23	49	13
15	32	16	6	2	1	75	10	1	250	16	2	11.03	49	1
15	32	16	6	2	1	75	10	1	251	16	1	761.63	49	16
15	32	16	6	2	1	75	10	1	252	6	1	9.72	49	1
15	32	16	6	2	1	75	10	1	253	16	4	41.14	49	1
15	32	16	6	2	1	75	10	1	254	6	9	707.45	49	15
15	32	16	6	2	1	75	10	1	255	6	6	8.08	49	1
15	32	16	6	2	1	75	10	1	256	6	3	22.89	49	1
15	32	16	6	2	1	75	10	1	257	6	8	262.74	49	6
15	32	16	6	2	1	75	10	1	258	6	6	27.85	49	1
15	32	16	6	2	1	75	10	1	258	6	6	761.77	49	16
15	32	16	6	2	1	75	10	1	259	6	2	7.95	49	1
15	32	16	6	2	1	75	10	1	260	6	7	13.08	49	1
15	32	16	6	2	1	75	10	1	261	16	9	58.9	49	2
15	32	16	6	2	1	75	10	1	262	6	8	665.08	49	14
15	32	16	6	2	1	75	10	1	263	6	5	10.98	49	1
15	32	16	6	2	1	75	10	1	263	6	5	710.34	49	15
15	32	16	6	2	1	75	10	1	264	6	9	12.14	49	1
15	32	16	6	2	1	75	10	1	264	6	9	680.42	49	14
15	32	16	6	2	1	75	10	1	265	16	10	9.62	49	1
15	32	16	6	2	1	75	10	1	266	6	1	667.97	49	14
15	32	16	6	2	1	75	10	1	267	6	4	10.48	49	1
15	32	16	6	2	1	75	10	1	267	6	4	560.29	49	12
15	32	16	6	2	1	75	10	1	268	6	10	673.14	49	14
15	32	16	6	2	1	75	10	1	269	16	3	9.19	49	1
15	32	16	6	2	1	75	10	1	270	6	3	557.42	49	12
15	32	16	6	2	1	75	10	1	271	16	7	0	-1	16
15	32	16	6	2	1	75	10	1	272	6	6	616.01	49	13
15	32	16	6	2	1	75	10	1	273	16	1	0	-1	16
15	32	16	6	2	1	75	10	1	274	6	8	0	-1	16
15	32	16	6	2	1	75	10	1	275	6	4	0	-1	16
15	32	16	6	2	1	75	10	1	276	16	10	274.12	49	6
15	32	16	6	2	1	75	10	1	277	6	10	408.93	49	9
15	32	16	6	2	1	75	10	1	278	6	2	708.63	49	15
15	32	16	6	2	1	75	10	1	279	6	9	7.8	49	1
15	32	16	6	2	1	75	10	1	280	6	1	124.29	49	3
15	32	16	6	2	1	75	10	1	281	6	5	32.44	49	1
15	32	16	6	2	1	75	10	1	282	6	7	0	-1	16
15	32	16	6	2	1	75	10	1	283	6	3	165.81	49	4
15	32	16	6	2	1	75	10	1	284	6	2	10.34	49	1
15	32	16	6	2	1	75	10	1	285	6	10	10.88	49	1
15	32	16	6	2	1	75	10	1	286	6	9	177.64	49	4
15	32	16	6	2	1	75	10	1	287	6	8	126.55	49	3
15	32	16	6	2	1	75	10	1	288	16	9	139.92	49	3
15	32	16	6	2	1	75	10	1	289	6	5	459.2	49	10
15	32	16	6	2	1	75	10	1	290	6	1	641.88	49	13
15	32	16	6	2	1	75	10	1	291	6	7	7.69	49	1
15	32	16	6	2	1	75	10	1	291	6	7	708.69	49	15
15	32	16	6	2	1	75	10	1	292	16	2	9.31	49	1
15	32	16	6	2	1	75	10	1	293	6	3	570.41	49	12
15	32	16	6	2	1	75	10	1	294	6	6	612.23	49	13
15	32	16	6	2	1	75	10	1	295	6	4	7.83	49	1
15	32	16	6	2	1	75	10	1	295	6	4	742.92	49	15
15	32	16	6	2	1	75	10	1	296	16	5	10.38	49	1
15	32	16	6	2	1	75	10	1	297	16	4	0	-1	16
15	32	16	6	2	1	75	10	1	298	6	2	509.71	49	11
15	32	16	6	2	1	75	10	1	299	6	9	626.69	49	13
15	32	16	6	2	1	75	10	1	300	6	10	0	-1	16
15	32	16	6	2	1	75	10	1	301	16	6	361.57	49	8
15	32	16	6	2	1	75	10	1	302	6	1	658.38	49	14
15	32	16	6	2	1	75	10	1	303	6	8	9.59	49	1
15	32	16	6	2	1	75	10	1	303	6	8	709.4	49	15
15	32	16	6	2	1	75	10	1	304	16	3	8.11	49	1
15	32	16	6	2	1	75	10	1	305	6	6	661.7	49	14
15	32	16	6	2	1	75	10	1	306	16	8	8.3	49	1
15	32	16	6	2	1	75	10	1	307	6	7	664.09	49	14
15	32	16	6	2	1	75	10	1	308	6	3	10.27	49	1
15	32	16	6	2	1	75	10	1	308	6	3	695.06	49	14
15	32	16	6	2	1	75	10	1	309	16	7	10.53	49	1
15	32	16	6	2	1	75	10	1	310	16	1	0	-1	16
15	32	16	6	2	1	75	10	1	311	6	5	660.74	49	14
15	32	16	6	2	1	75	10	1	312	6	4	12.84	49	1
15	32	16	6	2	1	75	10	1	312	6	4	660.09	49	14
15	32	16	6	2	1	75	10	1	313	6	7	10.37	49	1
15	32	16	6	2	1	75	10	1	313	6	7	677.25	49	14
15	32	16	6	2	1	75	10	1	314	16	9	11.22	49	1
15	32	16	6	2	1	75	10	1	314	16	9	733.34	49	15
15	32	16	6	2	1	75	10	1	315	6	9	9.7	49	1
15	32	16	6	2	1	75	10	1	315	6	9	617.99	49	13
15	32	16	6	2	1	75	10	1	316	16	4	0	-1	16
15	32	16	6	2	1	75	10	1	317	6	2	732.67	49	15
15	32	16	6	2	1	75	10	1	318	6	4	8.26	49	1
15	32	16	6	2	1	75	10	1	318	6	4	740.97	49	15
15	32	16	6	2	1	75	10	1	319	16	5	7.53	49	1
15	32	16	6	2	1	75	10	1	320	6	5	582.15	49	12
15	32	16	6	2	1	75	10	1	321	6	1	657.58	49	14
15	32	16	6	2	1	75	10	1	322	6	10	8.01	49	1
15	32	16	6	2	1	75	10	1	323	16	10	12.53	49	1
15	32	16	6	2	1	75	10	1	324	16	2	0	-1	16
15	32	16	6	2	1	75	10	1	325	6	6	0	-1	16
15	32	16	6	2	1	75	10	1	326	6	3	25.62	49	1
15	32	16	6	2	1	75	10	1	326	6	3	722.94	49	15
15	32	16	6	2	1	75	10	1	327	6	8	9.44	49	1
15	32	16	6	2	1	75	10	1	328	6	5	61	49	2
15	32	16	6	2	1	75	10	1	329	6	10	57.81	49	2
15	32	16	6	2	1	75	10	1	330	6	4	129.94	49	3
15	32	16	6	2	1	75	10	1	331	6	9	57.57	49	2
15	32	16	6	2	1	75	10	1	332	6	2	137.01	49	3
15	32	16	6	2	1	75	10	1	333	6	8	68.51	49	2
15	32	16	6	2	1	75	10	1	334	6	7	185.64	49	4
15	32	16	6	2	1	75	10	1	335	6	3	207.55	49	5
15	32	16	6	2	1	75	10	1	336	6	6	29.57	49	1
15	32	16	6	2	1	75	10	1	337	6	1	39.04	49	1
15	32	16	6	2	1	75	10	1	338	6	7	126.39	49	3
15	32	16	6	2	1	75	10	1	339	6	9	136.41	49	3
15	32	16	6	2	1	75	10	1	340	6	4	179.36	49	4
15	32	16	6	2	1	75	10	1	341	6	10	119.38	49	3
15	32	16	6	2	1	75	10	1	342	6	5	168.23	49	4
15	32	16	6	2	1	75	10	1	343	16	6	10.96	49	1
15	32	16	6	2	1	75	10	1	344	16	3	0	-1	16
15	32	16	6	2	1	75	10	1	345	16	8	0	-1	16
15	32	16	6	2	1	75	10	1	346	6	2	0	-1	16
15	32	16	6	2	1	75	10	1	347	16	2	12.19	49	1
15	32	16	6	2	1	75	10	1	348	6	1	610.54	49	13
15	32	16	6	2	1	75	10	1	349	6	3	622.85	49	13
15	32	16	6	2	1	75	10	1	350	6	6	661.17	49	14
15	32	16	6	2	1	75	10	1	351	6	8	11.08	49	1
15	32	16	6	2	1	75	10	1	352	6	2	10.31	49	1
15	32	16	6	2	1	75	10	1	353	6	9	38.54	49	1
15	32	16	6	2	1	75	10	1	353	6	9	765.78	49	16
15	32	16	6	2	1	75	10	1	354	6	10	8.16	49	1
15	32	16	6	2	1	75	10	1	355	6	7	57.42	49	2
15	32	16	6	2	1	75	10	1	356	16	9	139.36	49	3
15	32	16	6	2	1	75	10	1	357	6	1	368.46	49	8
15	32	16	6	2	1	75	10	1	358	6	6	407.62	49	9
15	32	16	6	2	1	75	10	1	359	6	5	709.96	49	15
15	32	16	6	2	1	75	10	1	360	6	8	41.21	49	1
15	32	16	6	2	1	75	10	1	360	6	8	772.29	49	16
15	32	16	6	2	1	75	10	1	361	6	3	8.37	49	1
15	32	16	6	2	1	75	10	1	362	6	4	10.8	49	1
15	32	16	6	2	1	75	10	1	362	6	4	710.46	49	15
15	32	16	6	2	1	75	10	1	363	6	5	10.18	49	1
15	32	16	6	2	1	75	10	1	363	6	5	211.17	49	5
15	32	16	6	2	1	75	10	1	363	6	5	460.31	49	10
15	32	16	6	2	1	75	10	1	363	6	5	677.43	49	14
15	32	16	6	2	1	75	10	1	364	6	2	13.11	49	1
15	32	16	6	2	1	75	10	1	365	16	10	35.63	49	1
15	32	16	6	2	1	75	10	1	366	6	10	708.72	49	15
15	32	16	6	2	1	75	10	1	367	6	9	9.03	49	1
15	32	16	6	2	1	75	10	1	367	6	9	718.24	49	15
15	32	16	6	2	1	75	10	1	368	6	4	7.89	49	1
15	32	16	6	2	1	75	10	1	368	6	4	719.36	49	15
15	32	16	6	2	1	75	10	1	369	6	3	7.82	49	1
15	32	16	6	2	1	75	10	1	369	6	3	709.09	49	15
15	32	16	6	2	1	75	10	1	370	6	8	31.09	49	1
15	32	16	6	2	1	75	10	1	371	6	7	20.62	49	1
15	32	16	6	2	1	75	10	1	371	6	7	738.99	49	15
15	32	16	6	2	1	75	10	1	372	6	6	10.3	49	1
15	32	16	6	2	1	75	10	1	373	6	1	57.39	49	2
15	32	16	6	2	1	75	10	1	374	6	2	79.51	49	2
15	32	16	6	2	1	75	10	1	375	6	10	29.89	49	1
15	32	16	6	2	1	75	10	1	375	6	10	727.58	49	15
15	32	16	6	2	1	75	10	1	376	6	9	12.25	49	1
15	32	16	6	2	1	75	10	1	376	6	9	789	49	16
15	32	16	6	2	1	75	10	1	377	6	7	13.4	49	1
15	32	16	6	2	1	75	10	1	378	16	7	10.46	49	1
15	32	16	6	2	1	75	10	1	379	16	3	0	-1	16
15	32	16	6	2	1	75	10	1	380	16	5	0	-1	16
15	32	16	6	2	1	75	10	1	381	6	5	724.15	49	15
15	32	16	6	2	1	75	10	1	382	16	6	7.71	49	1
15	32	16	6	2	1	75	10	1	383	6	8	709.21	49	15
15	32	16	6	2	1	75	10	1	384	6	1	7.94	49	1
15	32	16	6	2	1	75	10	1	385	6	6	14.79	49	1
15	32	16	6	2	1	75	10	1	385	6	6	714.44	49	15
15	32	16	6	2	1	75	10	1	386	6	3	10.41	49	1
15	32	16	6	2	1	75	10	1	386	6	3	695.14	49	14
15	32	16	6	2	1	75	10	1	387	16	8	12.08	49	1
15	32	16	6	2	1	75	10	1	388	6	4	661.57	49	14
15	32	16	6	2	1	75	10	1	389	6	7	732.16	49	15
15	32	16	6	2	1	75	10	1	390	6	1	12.98	49	1
15	32	16	6	2	1	75	10	1	390	6	1	761.37	49	16
15	32	16	6	2	1	75	10	1	391	6	2	12.4	49	1
15	32	16	6	2	1	75	10	1	391	6	2	710.79	49	15
15	32	16	6	2	1	75	10	1	392	6	5	8.9	49	1
15	32	16	6	2	1	75	10	1	392	6	5	666.61	49	14
15	32	16	6	2	1	75	10	1	393	16	1	7.7	49	1
15	32	16	6	2	1	75	10	1	393	16	1	768.64	49	16
15	32	16	6	2	1	75	10	1	394	6	10	9.1	49	1
15	32	16	6	2	1	75	10	1	395	16	4	157.55	49	4
15	32	16	6	2	1	75	10	1	396	6	4	625.93	49	13
15	32	16	6	2	1	75	10	1	397	6	9	660.06	49	14
15	32	16	6	2	1	75	10	1	398	6	6	8.4	49	1
15	32	16	6	2	1	75	10	1	398	6	6	660.91	49	14
15	32	16	6	2	1	75	10	1	399	6	3	10.02	49	1
15	32	16	6	2	1	75	10	1	399	6	3	674.37	49	14
15	32	16	6	2	1	75	10	1	400	6	8	10.78	49	1
15	32	16	6	2	1	75	10	1	400	6	8	760.5	49	16
15	32	16	6	2	1	75	10	1	401	16	5	11.12	49	1
15	32	16	6	2	1	75	10	1	402	6	6	16.52	49	1
15	32	16	6	2	1	75	10	1	402	6	6	711.82	49	15
15	32	16	6	2	1	75	10	1	403	16	9	9.55	49	1
15	32	16	6	2	1	75	10	1	404	6	10	623.57	49	13
15	32	16	6	2	1	75	10	1	405	6	9	664.02	49	14
15	32	16	6	2	1	75	10	1	406	16	2	8.55	49	1
15	32	16	6	2	1	75	10	1	407	16	10	0	-1	16
15	32	16	6	2	1	75	10	1	408	6	5	557.43	49	12
15	32	16	6	2	1	75	10	1	409	16	4	0	-1	16
15	32	16	6	2	1	75	10	1	410	16	6	0	-1	16
15	32	16	6	2	1	75	10	1	411	6	7	0	-1	16
15	32	16	6	2	1	75	10	1	412	16	7	75	49	2
15	32	16	6	2	1	75	10	1	413	6	4	562.4	49	12
15	32	16	6	2	1	75	10	1	414	16	8	0	-1	16
15	32	16	6	2	1	75	10	1	415	6	2	683.37	49	14
15	32	16	6	2	1	75	10	1	416	6	1	9.23	49	1
15	32	16	6	2	1	75	10	1	416	6	1	637.71	49	13
15	32	16	6	2	1	75	10	1	417	6	8	743.53	49	15
15	32	16	6	2	1	75	10	1	418	6	3	8.05	49	1
15	32	16	6	2	1	75	10	1	418	6	3	657.42	49	14
15	32	16	6	2	1	75	10	1	419	6	2	7.93	49	1
15	32	16	6	2	1	75	10	1	419	6	2	681.53	49	14
15	32	16	6	2	1	75	10	1	420	6	10	9.23	49	1
15	32	16	6	2	1	75	10	1	421	16	3	114.93	49	3
15	32	16	6	2	1	75	10	1	422	6	9	674.05	49	14
15	32	16	6	2	1	75	10	1	423	16	1	11.24	49	1
15	32	16	6	2	1	75	10	1	424	6	7	79.35	49	2
15	32	16	6	2	1	75	10	1	425	6	6	760.77	49	16
15	32	16	6	2	1	75	10	1	426	16	6	8.22	49	1
15	32	16	6	2	1	75	10	1	427	6	5	607.2	49	13
15	32	16	6	2	1	75	10	1	428	16	7	0	-1	16
15	32	16	6	2	1	75	10	1	429	6	8	621.28	49	13
15	32	16	6	2	1	75	10	1	430	6	1	643.86	49	13
15	32	16	6	2	1	75	10	1	431	16	1	7.75	49	1
15	32	16	6	2	1	75	10	1	432	6	3	673.54	49	14
15	32	16	6	2	1	75	10	1	433	6	4	8.61	49	1
15	32	16	6	2	1	75	10	1	433	6	4	660.49	49	14
15	32	16	6	2	1	75	10	1	434	6	6	9.76	49	1
15	32	16	6	2	1	75	10	1	434	6	6	635.01	49	13
15	32	16	6	2	1	75	10	1	435	6	1	760.05	49	16
15	32	16	6	2	1	75	10	1	436	6	4	10.58	49	1
15	32	16	6	2	1	75	10	1	436	6	4	759.09	49	16
15	32	16	6	2	1	75	10	1	437	6	10	9.03	49	1
15	32	16	6	2	1	75	10	1	437	6	10	713.58	49	15
15	32	16	6	2	1	75	10	1	438	6	5	7.53	49	1
15	32	16	6	2	1	75	10	1	438	6	5	761.97	49	16
15	32	16	6	2	1	75	10	1	439	16	10	8.29	49	1
15	32	16	6	2	1	75	10	1	440	6	7	585.61	49	12
15	32	16	6	2	1	75	10	1	441	6	2	508.61	49	11
15	32	16	6	2	1	75	10	1	442	6	9	626.67	49	13
15	32	16	6	2	1	75	10	1	443	6	8	8.22	49	1
15	32	16	6	2	1	75	10	1	444	6	3	8.63	49	1
15	32	16	6	2	1	75	10	1	444	6	3	757.86	49	16
15	32	16	6	2	1	75	10	1	445	6	5	8.76	49	1
15	32	16	6	2	1	75	10	1	445	6	5	658.76	49	14
15	32	16	6	2	1	75	10	1	446	6	4	10.17	49	1
15	32	16	6	2	1	75	10	1	446	6	4	662.31	49	14
15	32	16	6	2	1	75	10	1	447	6	9	10.3	49	1
15	32	16	6	2	1	75	10	1	447	6	9	669.33	49	14
15	32	16	6	2	1	75	10	1	448	6	2	10.39	49	1
15	32	16	6	2	1	75	10	1	448	6	2	760.48	49	16
15	32	16	6	2	1	75	10	1	449	6	10	12.76	49	1
15	32	16	6	2	1	75	10	1	449	6	10	741.57	49	15
15	32	16	6	2	1	75	10	1	450	6	8	8.59	49	1
15	32	16	6	2	1	75	10	1	450	6	8	674.31	49	14
