SubjectNum	Age	Gender	PressedTask	Block Type	Block Repeat Num	Response Rate	Onset	Block	Trial	ImgType	ImgNum	RT	PressedC	FrameC
12	38	16	6	3	1	75	10	1	1	6	5	663.57	49	12
12	38	16	6	3	1	75	10	1	2	6	10	12.96	49	1
12	38	16	6	3	1	75	10	1	2	6	10	395.71	49	8
12	38	16	6	3	1	75	10	1	3	6	4	213.25	49	5
12	38	16	6	3	1	75	10	1	4	6	9	15.31	49	1
12	38	16	6	3	1	75	10	1	5	16	7	112.76	49	3
12	38	16	6	3	1	75	10	1	6	6	2	687.29	49	14
12	38	16	6	3	1	75	10	1	7	6	3	9.31	49	1
12	38	16	6	3	1	75	10	1	7	6	3	781.58	49	16
12	38	16	6	3	1	75	10	1	8	16	9	10.99	49	1
12	38	16	6	3	1	75	10	1	9	6	8	710.53	49	15
12	38	16	6	3	1	75	10	1	10	16	2	10.12	49	1
12	38	16	6	3	1	75	10	1	11	6	7	730.6	49	15
12	38	16	6	3	1	75	10	1	12	6	6	8.67	49	1
12	38	16	6	3	1	75	10	1	13	6	1	108.09	49	3
12	38	16	6	3	1	75	10	1	14	16	5	139.45	49	3
12	38	16	6	3	1	75	10	1	15	6	5	691.12	49	14
12	38	16	6	3	1	75	10	1	16	6	2	8.19	49	1
12	38	16	6	3	1	75	10	1	16	6	2	796.34	49	16
12	38	16	6	3	1	75	10	1	17	6	4	8.89	49	1
12	38	16	6	3	1	75	10	1	17	6	4	787.51	49	16
12	38	16	6	3	1	75	10	1	18	6	9	11.53	49	1
12	38	16	6	3	1	75	10	1	19	6	10	60.46	49	2
12	38	16	6	3	1	75	10	1	20	16	1	12.14	49	1
12	38	16	6	3	1	75	10	1	21	6	3	0	-1	16
12	38	16	6	3	1	75	10	1	22	16	10	11.41	49	1
12	38	16	6	3	1	75	10	1	23	6	7	779.61	49	16
12	38	16	6	3	1	75	10	1	24	16	4	8.84	49	1
12	38	16	6	3	1	75	10	1	25	6	8	0	-1	16
12	38	16	6	3	1	75	10	1	26	16	3	125.13	49	3
12	38	16	6	3	1	75	10	1	26	16	3	359.64	49	8
12	38	16	6	3	1	75	10	1	27	6	6	743.65	49	15
12	38	16	6	3	1	75	10	1	28	6	1	9.86	49	1
12	38	16	6	3	1	75	10	1	29	6	6	131.27	49	3
12	38	16	6	3	1	75	10	1	30	6	1	61.87	49	2
12	38	16	6	3	1	75	10	1	31	16	6	91.37	49	2
12	38	16	6	3	1	75	10	1	32	6	9	658.88	49	14
12	38	16	6	3	1	75	10	1	33	6	8	0	-1	16
12	38	16	6	3	1	75	10	1	34	6	10	221.4	49	5
12	38	16	6	3	1	75	10	1	35	16	8	107.39	49	3
12	38	16	6	3	1	75	10	1	35	16	8	782.09	49	16
12	38	16	6	3	1	75	10	1	36	6	7	8.93	49	1
12	38	16	6	3	1	75	10	1	37	6	4	8.95	49	1
12	38	16	6	3	1	75	10	1	37	6	4	764.75	49	16
12	38	16	6	3	1	75	10	1	38	6	2	8.93	49	1
12	38	16	6	3	1	75	10	1	39	6	5	175.62	49	4
12	38	16	6	3	1	75	10	1	40	16	7	63.56	49	2
12	38	16	6	3	1	75	10	1	41	16	4	0	-1	16
12	38	16	6	3	1	75	10	1	42	6	3	710.37	49	15
12	38	16	6	3	1	75	10	1	43	6	7	11.04	49	1
12	38	16	6	3	1	75	10	1	44	6	5	309.13	49	7
12	38	16	6	3	1	75	10	1	44	6	5	789.72	49	16
12	38	16	6	3	1	75	10	1	45	6	2	8.5	49	1
12	38	16	6	3	1	75	10	1	46	6	1	87.97	49	2
12	38	16	6	3	1	75	10	1	47	6	9	124.34	49	3
12	38	16	6	3	1	75	10	1	48	6	4	107.29	49	3
12	38	16	6	3	1	75	10	1	49	16	5	37.03	49	1
12	38	16	6	3	1	75	10	1	50	16	1	0	-1	16
12	38	16	6	3	1	75	10	1	51	6	10	0	-1	16
12	38	16	6	3	1	75	10	1	52	6	6	116.46	49	3
12	38	16	6	3	1	75	10	1	53	6	3	165.25	49	4
12	38	16	6	3	1	75	10	1	54	6	8	64.13	49	2
12	38	16	6	3	1	75	10	1	55	16	2	360.17	49	8
12	38	16	6	3	1	75	10	1	56	6	2	0	-1	16
12	38	16	6	3	1	75	10	1	57	6	10	42.52	49	1
12	38	16	6	3	1	75	10	1	58	6	9	8.8	49	1
12	38	16	6	3	1	75	10	1	59	16	10	57.84	49	2
12	38	16	6	3	1	75	10	1	60	6	1	707.47	49	15
12	38	16	6	3	1	75	10	1	61	6	8	8.53	49	1
12	38	16	6	3	1	75	10	1	62	6	3	113.65	49	3
12	38	16	6	3	1	75	10	1	63	6	6	64.33	49	2
12	38	16	6	3	1	75	10	1	64	6	5	108.16	49	3
12	38	16	6	3	1	75	10	1	64	6	5	794.89	49	16
12	38	16	6	3	1	75	10	1	65	6	7	10.25	49	1
12	38	16	6	3	1	75	10	1	66	6	4	272.19	49	6
12	38	16	6	3	1	75	10	1	67	6	7	76.12	49	2
12	38	16	6	3	1	75	10	1	68	6	4	121.24	49	3
12	38	16	6	3	1	75	10	1	69	6	10	113.96	49	3
12	38	16	6	3	1	75	10	1	70	6	2	62.13	49	2
12	38	16	6	3	1	75	10	1	71	6	1	75.47	49	2
12	38	16	6	3	1	75	10	1	72	6	9	174.97	49	4
12	38	16	6	3	1	75	10	1	73	6	5	9.25	49	1
12	38	16	6	3	1	75	10	1	73	6	5	707.41	49	15
12	38	16	6	3	1	75	10	1	74	6	6	8.23	49	1
12	38	16	6	3	1	75	10	1	75	6	3	107.25	49	3
12	38	16	6	3	1	75	10	1	76	6	8	24.48	49	1
12	38	16	6	3	1	75	10	1	77	6	5	366.91	49	8
12	38	16	6	3	1	75	10	1	78	16	9	63.24	49	2
12	38	16	6	3	1	75	10	1	79	16	6	676.55	49	14
12	38	16	6	3	1	75	10	1	80	16	3	11.14	49	1
12	38	16	6	3	1	75	10	1	81	16	8	0	-1	16
12	38	16	6	3	1	75	10	1	82	6	4	0	-1	16
12	38	16	6	3	1	75	10	1	83	16	7	8.51	49	1
12	38	16	6	3	1	75	10	1	84	6	10	677.62	49	14
12	38	16	6	3	1	75	10	1	85	6	2	8.05	49	1
12	38	16	6	3	1	75	10	1	86	6	9	37.1	49	1
12	38	16	6	3	1	75	10	1	87	6	7	110.05	49	3
12	38	16	6	3	1	75	10	1	88	6	8	326.47	49	7
12	38	16	6	3	1	75	10	1	89	6	6	227.77	49	5
12	38	16	6	3	1	75	10	1	90	6	3	108.85	49	3
12	38	16	6	3	1	75	10	1	91	6	1	88.9	49	2
12	38	16	6	3	1	75	10	1	92	6	7	68.68	49	2
12	38	16	6	3	1	75	10	1	93	16	9	260.39	49	6
12	38	16	6	3	1	75	10	1	94	6	5	708.8	49	15
12	38	16	6	3	1	75	10	1	95	6	2	9.41	49	1
12	38	16	6	3	1	75	10	1	95	6	2	781.67	49	16
12	38	16	6	3	1	75	10	1	96	6	1	8.66	49	1
12	38	16	6	3	1	75	10	1	97	6	9	20.59	49	1
12	38	16	6	3	1	75	10	1	97	6	9	777.58	49	16
12	38	16	6	3	1	75	10	1	98	16	2	8.77	49	1
12	38	16	6	3	1	75	10	1	99	6	4	696.62	49	14
12	38	16	6	3	1	75	10	1	100	16	4	7.71	49	1
12	38	16	6	3	1	75	10	1	101	6	10	740.11	49	15
12	38	16	6	3	1	75	10	1	102	6	3	8.23	49	1
12	38	16	6	3	1	75	10	1	103	6	6	327.81	49	7
12	38	16	6	3	1	75	10	1	104	6	8	212.82	49	5
12	38	16	6	3	1	75	10	1	105	6	5	167.43	49	4
12	38	16	6	3	1	75	10	1	106	6	9	39.33	49	1
12	38	16	6	3	1	75	10	1	107	16	10	123.72	49	3
12	38	16	6	3	1	75	10	1	108	6	4	707.72	49	15
12	38	16	6	3	1	75	10	1	109	16	1	7.83	49	1
12	38	16	6	3	1	75	10	1	110	6	2	0	-1	16
12	38	16	6	3	1	75	10	1	111	6	10	96.07	49	2
12	38	16	6	3	1	75	10	1	112	6	6	16.38	49	1
12	38	16	6	3	1	75	10	1	113	16	5	43.18	49	1
12	38	16	6	3	1	75	10	1	114	6	3	709.8	49	15
12	38	16	6	3	1	75	10	1	115	6	7	10.31	49	1
12	38	16	6	3	1	75	10	1	116	16	3	126.62	49	3
12	38	16	6	3	1	75	10	1	117	16	6	0	-1	16
12	38	16	6	3	1	75	10	1	118	16	8	0	-1	16
12	38	16	6	3	1	75	10	1	119	6	8	0	-1	16
12	38	16	6	3	1	75	10	1	120	6	1	109.85	49	3
12	38	16	6	3	1	75	10	1	121	16	5	31.31	49	1
12	38	16	6	3	1	75	10	1	122	6	5	612.04	49	13
12	38	16	6	3	1	75	10	1	123	6	2	0	-1	16
12	38	16	6	3	1	75	10	1	124	16	4	77.37	49	2
12	38	16	6	3	1	75	10	1	125	16	9	0	-1	16
12	38	16	6	3	1	75	10	1	126	16	10	0	-1	16
12	38	16	6	3	1	75	10	1	127	6	10	0	-1	16
12	38	16	6	3	1	75	10	1	128	16	2	11.13	49	1
12	38	16	6	3	1	75	10	1	129	16	6	0	-1	16
12	38	16	6	3	1	75	10	1	130	16	8	0	-1	16
12	38	16	6	3	1	75	10	1	131	16	7	0	-1	16
12	38	16	6	3	1	75	10	1	132	6	9	738.53	49	15
12	38	16	6	3	1	75	10	1	133	6	4	7.53	49	1
12	38	16	6	3	1	75	10	1	134	6	8	184.47	49	4
12	38	16	6	3	1	75	10	1	135	6	7	117.7	49	3
12	38	16	6	3	1	75	10	1	136	6	3	157.44	49	4
12	38	16	6	3	1	75	10	1	137	6	6	30.13	49	1
12	38	16	6	3	1	75	10	1	138	6	1	73.88	49	2
12	38	16	6	3	1	75	10	1	139	16	3	111.84	49	3
12	38	16	6	3	1	75	10	1	140	16	1	0	-1	16
12	38	16	6	3	1	75	10	1	141	16	6	0	-1	16
12	38	16	6	3	1	75	10	1	142	6	7	761.87	49	16
12	38	16	6	3	1	75	10	1	143	6	2	9.64	49	1
12	38	16	6	3	1	75	10	1	144	16	10	367.13	49	8
12	38	16	6	3	1	75	10	1	145	6	10	257.82	49	6
12	38	16	6	3	1	75	10	1	146	6	4	159.06	49	4
12	38	16	6	3	1	75	10	1	147	6	5	87.7	49	2
12	38	16	6	3	1	75	10	1	147	6	5	777.12	49	16
12	38	16	6	3	1	75	10	1	148	6	1	7.69	49	1
12	38	16	6	3	1	75	10	1	149	6	9	57.25	49	2
12	38	16	6	3	1	75	10	1	150	6	6	75.82	49	2
12	38	16	6	3	1	75	10	1	151	6	3	112.78	49	3
12	38	16	6	3	1	75	10	1	152	6	8	108.91	49	3
12	38	16	6	3	1	75	10	1	153	6	7	211.5	49	5
12	38	16	6	3	1	75	10	1	154	6	9	211.01	49	5
12	38	16	6	3	1	75	10	1	155	6	4	191.84	49	4
12	38	16	6	3	1	75	10	1	156	6	2	165	49	4
12	38	16	6	3	1	75	10	1	157	6	10	261.3	49	6
12	38	16	6	3	1	75	10	1	158	6	5	157.38	49	4
12	38	16	6	3	1	75	10	1	159	6	1	115.97	49	3
12	38	16	6	3	1	75	10	1	160	6	3	34.66	49	1
12	38	16	6	3	1	75	10	1	161	16	4	78.24	49	2
12	38	16	6	3	1	75	10	1	162	6	6	0	-1	16
12	38	16	6	3	1	75	10	1	163	16	8	189.82	49	4
12	38	16	6	3	1	75	10	1	164	6	8	0	-1	16
12	38	16	6	3	1	75	10	1	165	6	6	231.89	49	5
12	38	16	6	3	1	75	10	1	166	16	7	165.58	49	4
12	38	16	6	3	1	75	10	1	167	6	4	710.23	49	15
12	38	16	6	3	1	75	10	1	168	6	5	10.93	49	1
12	38	16	6	3	1	75	10	1	168	6	5	759.53	49	16
12	38	16	6	3	1	75	10	1	169	6	10	9.62	49	1
12	38	16	6	3	1	75	10	1	170	6	9	257.75	49	6
12	38	16	6	3	1	75	10	1	171	6	7	170.13	49	4
12	38	16	6	3	1	75	10	1	172	16	5	166.39	49	4
12	38	16	6	3	1	75	10	1	173	6	2	780.1	49	16
12	38	16	6	3	1	75	10	1	174	16	2	7.97	49	1
12	38	16	6	3	1	75	10	1	175	6	1	708.56	49	15
12	38	16	6	3	1	75	10	1	176	6	8	8.51	49	1
12	38	16	6	3	1	75	10	1	177	6	3	91.16	49	2
12	38	16	6	3	1	75	10	1	177	6	3	760.74	49	16
12	38	16	6	3	1	75	10	1	178	6	5	10.99	49	1
12	38	16	6	3	1	75	10	1	178	6	5	710.53	49	15
12	38	16	6	3	1	75	10	1	179	6	4	10.67	49	1
12	38	16	6	3	1	75	10	1	179	6	4	733.53	49	15
12	38	16	6	3	1	75	10	1	180	6	2	9.52	49	1
12	38	16	6	3	1	75	10	1	181	6	10	208.41	49	5
12	38	16	6	3	1	75	10	1	182	6	9	109.81	49	3
12	38	16	6	3	1	75	10	1	183	6	6	42.76	49	1
12	38	16	6	3	1	75	10	1	183	6	6	781.93	49	16
12	38	16	6	3	1	75	10	1	184	16	9	8.41	49	1
12	38	16	6	3	1	75	10	1	185	16	1	0	-1	16
12	38	16	6	3	1	75	10	1	186	6	8	0	-1	16
12	38	16	6	3	1	75	10	1	187	6	7	333.84	49	7
12	38	16	6	3	1	75	10	1	188	6	3	216.74	49	5
12	38	16	6	3	1	75	10	1	188	6	3	760.67	49	16
12	38	16	6	3	1	75	10	1	189	6	1	10.55	49	1
12	38	16	6	3	1	75	10	1	189	6	1	728.42	49	15
12	38	16	6	3	1	75	10	1	190	6	6	10.73	49	1
12	38	16	6	3	1	75	10	1	190	6	6	713.01	49	15
12	38	16	6	3	1	75	10	1	191	16	3	11.36	49	1
12	38	16	6	3	1	75	10	1	192	6	4	0	-1	16
12	38	16	6	3	1	75	10	1	193	6	1	66.02	49	2
12	38	16	6	3	1	75	10	1	194	6	2	208.19	49	5
12	38	16	6	3	1	75	10	1	195	16	6	61.6	49	2
12	38	16	6	3	1	75	10	1	196	6	5	0	-1	16
12	38	16	6	3	1	75	10	1	197	6	9	23.38	49	1
12	38	16	6	3	1	75	10	1	198	16	8	159.61	49	4
12	38	16	6	3	1	75	10	1	199	16	10	0	-1	16
12	38	16	6	3	1	75	10	1	200	6	10	0	-1	16
12	38	16	6	3	1	75	10	1	201	6	7	21.7	49	1
12	38	16	6	3	1	75	10	1	202	6	8	340.73	49	7
12	38	16	6	3	1	75	10	1	203	16	2	76.18	49	2
12	38	16	6	3	1	75	10	1	204	6	3	662.48	49	14
12	38	16	6	3	1	75	10	1	205	16	7	10.45	49	1
12	38	16	6	3	1	75	10	1	206	6	7	636.6	49	13
12	38	16	6	3	1	75	10	1	207	6	1	8.34	49	1
12	38	16	6	3	1	75	10	1	208	6	5	85.75	49	2
12	38	16	6	3	1	75	10	1	208	6	5	772.82	49	16
12	38	16	6	3	1	75	10	1	209	16	1	8.22	49	1
12	38	16	6	3	1	75	10	1	210	6	10	0	-1	16
12	38	16	6	3	1	75	10	1	211	6	4	8.37	49	1
12	38	16	6	3	1	75	10	1	212	16	4	163.65	49	4
12	38	16	6	3	1	75	10	1	213	6	2	0	-1	16
12	38	16	6	3	1	75	10	1	214	6	9	212.7	49	5
12	38	16	6	3	1	75	10	1	215	16	5	477.33	49	10
12	38	16	6	3	1	75	10	1	216	6	3	733.88	49	15
12	38	16	6	3	1	75	10	1	217	6	6	9.78	49	1
12	38	16	6	3	1	75	10	1	218	6	8	190.45	49	4
12	38	16	6	3	1	75	10	1	219	6	6	310.71	49	7
12	38	16	6	3	1	75	10	1	220	6	4	170.18	49	4
12	38	16	6	3	1	75	10	1	221	16	9	25.48	49	1
12	38	16	6	3	1	75	10	1	222	6	9	0	-1	16
12	38	16	6	3	1	75	10	1	223	6	10	82.13	49	2
12	38	16	6	3	1	75	10	1	224	6	1	127.81	49	3
12	38	16	6	3	1	75	10	1	225	16	3	414.07	49	9
12	38	16	6	3	1	75	10	1	226	6	2	760.76	49	16
12	38	16	6	3	1	75	10	1	227	6	7	12	49	1
12	38	16	6	3	1	75	10	1	228	6	5	288.19	49	6
12	38	16	6	3	1	75	10	1	229	6	8	207.59	49	5
12	38	16	6	3	1	75	10	1	230	6	3	312.74	49	7
12	38	16	6	3	1	75	10	1	231	6	6	121.95	49	3
12	38	16	6	3	1	75	10	1	232	16	6	157.38	49	4
12	38	16	6	3	1	75	10	1	233	16	7	0	-1	16
12	38	16	6	3	1	75	10	1	234	6	5	574.63	49	12
12	38	16	6	3	1	75	10	1	235	6	7	0	-1	16
12	38	16	6	3	1	75	10	1	236	16	8	184.57	49	4
12	38	16	6	3	1	75	10	1	237	6	1	722.59	49	15
12	38	16	6	3	1	75	10	1	238	6	2	11.08	49	1
12	38	16	6	3	1	75	10	1	239	6	8	110.24	49	3
12	38	16	6	3	1	75	10	1	240	6	4	35.91	49	1
12	38	16	6	3	1	75	10	1	241	6	9	137.66	49	3
12	38	16	6	3	1	75	10	1	242	6	10	160.47	49	4
12	38	16	6	3	1	75	10	1	243	6	3	165.64	49	4
12	38	16	6	3	1	75	10	1	244	16	5	259.8	49	6
12	38	16	6	3	1	75	10	1	245	6	7	0	-1	16
12	38	16	6	3	1	75	10	1	246	6	10	184.01	49	4
12	38	16	6	3	1	75	10	1	247	6	4	133.7	49	3
12	38	16	6	3	1	75	10	1	248	6	2	66.74	49	2
12	38	16	6	3	1	75	10	1	249	6	5	139.68	49	3
12	38	16	6	3	1	75	10	1	250	16	2	19.27	49	1
12	38	16	6	3	1	75	10	1	251	16	1	131.54	49	3
12	38	16	6	3	1	75	10	1	252	6	1	0	-1	16
12	38	16	6	3	1	75	10	1	253	16	4	76.91	49	2
12	38	16	6	3	1	75	10	1	254	6	9	709.93	49	15
12	38	16	6	3	1	75	10	1	255	6	6	9.29	49	1
12	38	16	6	3	1	75	10	1	256	6	3	141.57	49	3
12	38	16	6	3	1	75	10	1	257	6	8	244.62	49	5
12	38	16	6	3	1	75	10	1	258	6	6	307.46	49	7
12	38	16	6	3	1	75	10	1	259	6	2	90.36	49	2
12	38	16	6	3	1	75	10	1	260	6	7	159.77	49	4
12	38	16	6	3	1	75	10	1	261	16	9	127.84	49	3
12	38	16	6	3	1	75	10	1	262	6	8	0	-1	16
12	38	16	6	3	1	75	10	1	263	6	5	9.43	49	1
12	38	16	6	3	1	75	10	1	263	6	5	785.09	49	16
12	38	16	6	3	1	75	10	1	264	6	9	10.88	49	1
12	38	16	6	3	1	75	10	1	264	6	9	772.8	49	16
12	38	16	6	3	1	75	10	1	265	16	10	11.38	49	1
12	38	16	6	3	1	75	10	1	266	6	1	61	49	2
12	38	16	6	3	1	75	10	1	267	6	4	62.13	49	2
12	38	16	6	3	1	75	10	1	268	6	10	35.49	49	1
12	38	16	6	3	1	75	10	1	269	16	3	107.93	49	3
12	38	16	6	3	1	75	10	1	270	6	3	775.5	49	16
12	38	16	6	3	1	75	10	1	271	16	7	8.05	49	1
12	38	16	6	3	1	75	10	1	272	6	6	783.72	49	16
12	38	16	6	3	1	75	10	1	273	16	1	9.81	49	1
12	38	16	6	3	1	75	10	1	274	6	8	0	-1	16
12	38	16	6	3	1	75	10	1	275	6	4	111.65	49	3
12	38	16	6	3	1	75	10	1	276	16	10	17.69	49	1
12	38	16	6	3	1	75	10	1	277	6	10	0	-1	16
12	38	16	6	3	1	75	10	1	278	6	2	10.62	49	1
12	38	16	6	3	1	75	10	1	279	6	9	158.71	49	4
12	38	16	6	3	1	75	10	1	280	6	1	374.31	49	8
12	38	16	6	3	1	75	10	1	281	6	5	158.3	49	4
12	38	16	6	3	1	75	10	1	282	6	7	61.69	49	2
12	38	16	6	3	1	75	10	1	283	6	3	359.37	49	8
12	38	16	6	3	1	75	10	1	284	6	2	213.81	49	5
12	38	16	6	3	1	75	10	1	285	6	10	187.41	49	4
12	38	16	6	3	1	75	10	1	286	6	9	11.7	49	1
12	38	16	6	3	1	75	10	1	287	6	8	171.34	49	4
12	38	16	6	3	1	75	10	1	288	16	9	321.39	49	7
12	38	16	6	3	1	75	10	1	289	6	5	710.2	49	15
12	38	16	6	3	1	75	10	1	290	6	1	10.42	49	1
12	38	16	6	3	1	75	10	1	291	6	7	25.2	49	1
12	38	16	6	3	1	75	10	1	292	16	2	473.02	49	10
12	38	16	6	3	1	75	10	1	293	6	3	0	-1	16
12	38	16	6	3	1	75	10	1	294	6	6	175.89	49	4
12	38	16	6	3	1	75	10	1	295	6	4	7.95	49	1
12	38	16	6	3	1	75	10	1	296	16	5	22.94	49	1
12	38	16	6	3	1	75	10	1	297	16	4	0	-1	16
12	38	16	6	3	1	75	10	1	298	6	2	0	-1	16
12	38	16	6	3	1	75	10	1	299	6	9	183.91	49	4
12	38	16	6	3	1	75	10	1	300	6	10	90.31	49	2
12	38	16	6	3	1	75	10	1	301	16	6	61.1	49	2
12	38	16	6	3	1	75	10	1	302	6	1	0	-1	16
12	38	16	6	3	1	75	10	1	303	6	8	9.91	49	1
12	38	16	6	3	1	75	10	1	304	16	3	223.59	49	5
12	38	16	6	3	1	75	10	1	305	6	6	783.54	49	16
12	38	16	6	3	1	75	10	1	306	16	8	8.61	49	1
12	38	16	6	3	1	75	10	1	307	6	7	0	-1	16
12	38	16	6	3	1	75	10	1	308	6	3	29.04	49	1
12	38	16	6	3	1	75	10	1	309	16	7	33.81	49	1
12	38	16	6	3	1	75	10	1	310	16	1	0	-1	16
12	38	16	6	3	1	75	10	1	311	6	5	475.49	49	10
12	38	16	6	3	1	75	10	1	312	6	4	587.76	49	12
12	38	16	6	3	1	75	10	1	313	6	7	0	-1	16
12	38	16	6	3	1	75	10	1	314	16	9	33.49	49	1
12	38	16	6	3	1	75	10	1	315	6	9	708.12	49	15
12	38	16	6	3	1	75	10	1	316	16	4	7.75	49	1
12	38	16	6	3	1	75	10	1	317	6	2	0	-1	16
12	38	16	6	3	1	75	10	1	318	6	4	9.02	49	1
12	38	16	6	3	1	75	10	1	318	6	4	787.23	49	16
12	38	16	6	3	1	75	10	1	319	16	5	10.65	49	1
12	38	16	6	3	1	75	10	1	320	6	5	721.08	49	15
12	38	16	6	3	1	75	10	1	321	6	1	8.69	49	1
12	38	16	6	3	1	75	10	1	322	6	10	42.11	49	1
12	38	16	6	3	1	75	10	1	323	16	10	123.69	49	3
12	38	16	6	3	1	75	10	1	324	16	2	0	-1	16
12	38	16	6	3	1	75	10	1	325	6	6	0	-1	16
12	38	16	6	3	1	75	10	1	326	6	3	20.39	49	1
12	38	16	6	3	1	75	10	1	327	6	8	212.96	49	5
12	38	16	6	3	1	75	10	1	328	6	5	157.61	49	4
12	38	16	6	3	1	75	10	1	329	6	10	44.2	49	1
12	38	16	6	3	1	75	10	1	330	6	4	287.17	49	6
12	38	16	6	3	1	75	10	1	331	6	9	236.98	49	5
12	38	16	6	3	1	75	10	1	332	6	2	164.31	49	4
12	38	16	6	3	1	75	10	1	333	6	8	58.59	49	2
12	38	16	6	3	1	75	10	1	333	6	8	764.25	49	16
12	38	16	6	3	1	75	10	1	334	6	7	8.89	49	1
12	38	16	6	3	1	75	10	1	335	6	3	260.8	49	6
12	38	16	6	3	1	75	10	1	336	6	6	110.49	49	3
12	38	16	6	3	1	75	10	1	337	6	1	118.51	49	3
12	38	16	6	3	1	75	10	1	338	6	7	140.85	49	3
12	38	16	6	3	1	75	10	1	339	6	9	260.82	49	6
12	38	16	6	3	1	75	10	1	340	6	4	194.96	49	4
12	38	16	6	3	1	75	10	1	341	6	10	58.28	49	2
12	38	16	6	3	1	75	10	1	342	6	5	37.5	49	1
12	38	16	6	3	1	75	10	1	343	16	6	10.33	49	1
12	38	16	6	3	1	75	10	1	344	16	3	0	-1	16
12	38	16	6	3	1	75	10	1	345	16	8	0	-1	16
12	38	16	6	3	1	75	10	1	346	6	2	0	-1	16
12	38	16	6	3	1	75	10	1	347	16	2	182.79	49	4
12	38	16	6	3	1	75	10	1	348	6	1	0	-1	16
12	38	16	6	3	1	75	10	1	349	6	3	39.68	49	1
12	38	16	6	3	1	75	10	1	350	6	6	111.58	49	3
12	38	16	6	3	1	75	10	1	351	6	8	58.95	49	2
12	38	16	6	3	1	75	10	1	352	6	2	243.54	49	5
12	38	16	6	3	1	75	10	1	353	6	9	225.46	49	5
12	38	16	6	3	1	75	10	1	354	6	10	57.98	49	2
12	38	16	6	3	1	75	10	1	355	6	7	35.98	49	1
12	38	16	6	3	1	75	10	1	356	16	9	307.45	49	7
12	38	16	6	3	1	75	10	1	357	6	1	667.89	49	14
12	38	16	6	3	1	75	10	1	358	6	6	8.9	49	1
12	38	16	6	3	1	75	10	1	359	6	5	77	49	2
12	38	16	6	3	1	75	10	1	360	6	8	91.82	49	2
12	38	16	6	3	1	75	10	1	361	6	3	209.94	49	5
12	38	16	6	3	1	75	10	1	362	6	4	39.24	49	1
12	38	16	6	3	1	75	10	1	363	6	5	109.49	49	3
12	38	16	6	3	1	75	10	1	364	6	2	58.63	49	2
12	38	16	6	3	1	75	10	1	365	16	10	111.99	49	3
12	38	16	6	3	1	75	10	1	366	6	10	0	-1	16
12	38	16	6	3	1	75	10	1	367	6	9	18.89	49	1
12	38	16	6	3	1	75	10	1	368	6	4	439.77	49	9
12	38	16	6	3	1	75	10	1	369	6	3	145.22	49	3
12	38	16	6	3	1	75	10	1	369	6	3	696.16	49	14
12	38	16	6	3	1	75	10	1	370	6	8	8.61	49	1
12	38	16	6	3	1	75	10	1	371	6	7	207.68	49	5
12	38	16	6	3	1	75	10	1	372	6	6	610.39	49	13
12	38	16	6	3	1	75	10	1	373	6	1	463.01	49	10
12	38	16	6	3	1	75	10	1	374	6	2	379.1	49	8
12	38	16	6	3	1	75	10	1	375	6	10	390.09	49	8
12	38	16	6	3	1	75	10	1	376	6	9	619.53	49	13
12	38	16	6	3	1	75	10	1	377	6	7	0	-1	16
12	38	16	6	3	1	75	10	1	378	16	7	123.03	49	3
12	38	16	6	3	1	75	10	1	379	16	3	0	-1	16
12	38	16	6	3	1	75	10	1	380	16	5	0	-1	16
12	38	16	6	3	1	75	10	1	381	6	5	660.43	49	14
12	38	16	6	3	1	75	10	1	382	16	6	0	-1	16
12	38	16	6	3	1	75	10	1	383	6	8	0	-1	16
12	38	16	6	3	1	75	10	1	384	6	1	81.47	49	2
12	38	16	6	3	1	75	10	1	385	6	6	163.4	49	4
12	38	16	6	3	1	75	10	1	386	6	3	160.3	49	4
12	38	16	6	3	1	75	10	1	387	16	8	68.29	49	2
12	38	16	6	3	1	75	10	1	388	6	4	709.71	49	15
12	38	16	6	3	1	75	10	1	389	6	7	9.07	49	1
12	38	16	6	3	1	75	10	1	390	6	1	128.02	49	3
12	38	16	6	3	1	75	10	1	391	6	2	220.23	49	5
12	38	16	6	3	1	75	10	1	392	6	5	123.92	49	3
12	38	16	6	3	1	75	10	1	393	16	1	92.32	49	2
12	38	16	6	3	1	75	10	1	394	6	10	0	-1	16
12	38	16	6	3	1	75	10	1	395	16	4	120.89	49	3
12	38	16	6	3	1	75	10	1	396	6	4	0	-1	16
12	38	16	6	3	1	75	10	1	397	6	9	110.55	49	3
12	38	16	6	3	1	75	10	1	398	6	6	225.93	49	5
12	38	16	6	3	1	75	10	1	399	6	3	242.42	49	5
12	38	16	6	3	1	75	10	1	400	6	8	63.75	49	2
12	38	16	6	3	1	75	10	1	401	16	5	167.25	49	4
12	38	16	6	3	1	75	10	1	402	6	6	0	-1	16
12	38	16	6	3	1	75	10	1	403	16	9	75.33	49	2
12	38	16	6	3	1	75	10	1	404	6	10	707.81	49	15
12	38	16	6	3	1	75	10	1	405	6	9	8.55	49	1
12	38	16	6	3	1	75	10	1	406	16	2	126.36	49	3
12	38	16	6	3	1	75	10	1	407	16	10	0	-1	16
12	38	16	6	3	1	75	10	1	408	6	5	658.11	49	14
12	38	16	6	3	1	75	10	1	409	16	4	9.31	49	1
12	38	16	6	3	1	75	10	1	410	16	6	0	-1	16
12	38	16	6	3	1	75	10	1	411	6	7	0	-1	16
12	38	16	6	3	1	75	10	1	412	16	7	71.94	49	2
12	38	16	6	3	1	75	10	1	413	6	4	110.32	49	3
12	38	16	6	3	1	75	10	1	413	6	4	791.98	49	16
12	38	16	6	3	1	75	10	1	414	16	8	12.22	49	1
12	38	16	6	3	1	75	10	1	415	6	2	0	-1	16
12	38	16	6	3	1	75	10	1	416	6	1	107.79	49	3
12	38	16	6	3	1	75	10	1	417	6	8	124.73	49	3
12	38	16	6	3	1	75	10	1	418	6	3	257.6	49	6
12	38	16	6	3	1	75	10	1	419	6	2	132.2	49	3
12	38	16	6	3	1	75	10	1	420	6	10	216.51	49	5
12	38	16	6	3	1	75	10	1	421	16	3	16.21	49	1
12	38	16	6	3	1	75	10	1	422	6	9	493.52	49	10
12	38	16	6	3	1	75	10	1	423	16	1	692.78	49	14
12	38	16	6	3	1	75	10	1	424	6	7	12.97	49	1
12	38	16	6	3	1	75	10	1	425	6	6	210.49	49	5
12	38	16	6	3	1	75	10	1	426	16	6	66.83	49	2
12	38	16	6	3	1	75	10	1	427	6	5	660.66	49	14
12	38	16	6	3	1	75	10	1	428	16	7	0	-1	16
12	38	16	6	3	1	75	10	1	429	6	8	744.73	49	15
12	38	16	6	3	1	75	10	1	430	6	1	8.23	49	1
12	38	16	6	3	1	75	10	1	431	16	1	282.66	49	6
12	38	16	6	3	1	75	10	1	432	6	3	759.41	49	16
12	38	16	6	3	1	75	10	1	433	6	4	7.83	49	1
12	38	16	6	3	1	75	10	1	434	6	6	263.54	49	6
12	38	16	6	3	1	75	10	1	435	6	1	157.82	49	4
12	38	16	6	3	1	75	10	1	436	6	4	260.5	49	6
12	38	16	6	3	1	75	10	1	437	6	10	77.47	49	2
12	38	16	6	3	1	75	10	1	438	6	5	62.02	49	2
12	38	16	6	3	1	75	10	1	439	16	10	188.3	49	4
12	38	16	6	3	1	75	10	1	440	6	7	0	-1	16
12	38	16	6	3	1	75	10	1	441	6	2	15.05	49	1
12	38	16	6	3	1	75	10	1	442	6	9	90.52	49	2
12	38	16	6	3	1	75	10	1	442	6	9	761.56	49	16
12	38	16	6	3	1	75	10	1	443	6	8	8.24	49	1
12	38	16	6	3	1	75	10	1	444	6	3	61.22	49	2
12	38	16	6	3	1	75	10	1	445	6	5	122.39	49	3
12	38	16	6	3	1	75	10	1	446	6	4	8.14	49	1
12	38	16	6	3	1	75	10	1	446	6	4	764.96	49	16
12	38	16	6	3	1	75	10	1	447	6	9	8.72	49	1
12	38	16	6	3	1	75	10	1	448	6	2	220.18	49	5
12	38	16	6	3	1	75	10	1	449	6	10	325.16	49	7
12	38	16	6	3	1	75	10	1	450	6	8	113.52	49	3
