SubjectNum	Age	Gender	PressedTask	Block Type	Block Repeat Num	Response Rate	Onset	Block	Trial	ImgType	ImgNum	RT	PressedC	FrameC
12	38	16	6	3	1	75	10	1	1	6	5	746.7	49	14
12	38	16	6	3	1	75	10	1	2	6	10	13.95	49	1
12	38	16	6	3	1	75	10	1	3	6	4	209.77	49	5
12	38	16	6	3	1	75	10	1	4	6	9	110.02	49	3
12	38	16	6	3	1	75	10	1	5	16	7	112.11	49	3
12	38	16	6	3	1	75	10	1	6	6	2	722.41	49	15
12	38	16	6	3	1	75	10	1	7	6	3	10.8	49	1
12	38	16	6	3	1	75	10	1	7	6	3	762.43	49	16
12	38	16	6	3	1	75	10	1	8	16	9	8.82	49	1
12	38	16	6	3	1	75	10	1	9	6	8	614.71	49	13
12	38	16	6	3	1	75	10	1	10	16	2	0	-1	16
12	38	16	6	3	1	75	10	1	11	6	7	612.12	49	13
12	38	16	6	3	1	75	10	1	12	6	6	9.96	49	1
12	38	16	6	3	1	75	10	1	12	6	6	744.01	49	15
12	38	16	6	3	1	75	10	1	13	6	1	9.41	49	1
12	38	16	6	3	1	75	10	1	14	16	5	107.34	49	3
12	38	16	6	3	1	75	10	1	15	6	5	607.52	49	13
12	38	16	6	3	1	75	10	1	16	6	2	775.71	49	16
12	38	16	6	3	1	75	10	1	17	6	4	7.89	49	1
12	38	16	6	3	1	75	10	1	18	6	9	8.27	49	1
12	38	16	6	3	1	75	10	1	19	6	10	125.41	49	3
12	38	16	6	3	1	75	10	1	20	16	1	88.06	49	2
12	38	16	6	3	1	75	10	1	21	6	3	674.64	49	14
12	38	16	6	3	1	75	10	1	22	16	10	11.4	49	1
12	38	16	6	3	1	75	10	1	23	6	7	625.21	49	13
12	38	16	6	3	1	75	10	1	24	16	4	0	-1	16
12	38	16	6	3	1	75	10	1	25	6	8	674.3	49	14
12	38	16	6	3	1	75	10	1	26	16	3	8.07	49	1
12	38	16	6	3	1	75	10	1	27	6	6	533.87	49	11
12	38	16	6	3	1	75	10	1	28	6	1	0	-1	16
12	38	16	6	3	1	75	10	1	29	6	6	65.96	49	2
12	38	16	6	3	1	75	10	1	30	6	1	57.35	49	2
12	38	16	6	3	1	75	10	1	31	16	6	7.85	49	1
12	38	16	6	3	1	75	10	1	32	6	9	583.29	49	12
12	38	16	6	3	1	75	10	1	33	6	8	0	-1	16
12	38	16	6	3	1	75	10	1	34	6	10	111.73	49	3
12	38	16	6	3	1	75	10	1	35	16	8	11.51	49	1
12	38	16	6	3	1	75	10	1	36	6	7	527.31	49	11
12	38	16	6	3	1	75	10	1	37	6	4	619.84	49	13
12	38	16	6	3	1	75	10	1	38	6	2	0	-1	16
12	38	16	6	3	1	75	10	1	39	6	5	123.97	49	3
12	38	16	6	3	1	75	10	1	39	6	5	686.76	49	14
12	38	16	6	3	1	75	10	1	40	16	7	8.4	49	1
12	38	16	6	3	1	75	10	1	41	16	4	0	-1	16
12	38	16	6	3	1	75	10	1	42	6	3	663.62	49	14
12	38	16	6	3	1	75	10	1	43	6	7	0	-1	16
12	38	16	6	3	1	75	10	1	44	6	5	117.26	49	3
12	38	16	6	3	1	75	10	1	44	6	5	757.28	49	16
12	38	16	6	3	1	75	10	1	45	6	2	9.61	49	1
12	38	16	6	3	1	75	10	1	46	6	1	35.04	49	1
12	38	16	6	3	1	75	10	1	46	6	1	791.63	49	16
12	38	16	6	3	1	75	10	1	47	6	9	10.55	49	1
12	38	16	6	3	1	75	10	1	47	6	9	776.61	49	16
12	38	16	6	3	1	75	10	1	48	6	4	10.99	49	1
12	38	16	6	3	1	75	10	1	49	16	5	37.87	49	1
12	38	16	6	3	1	75	10	1	50	16	1	0	-1	16
12	38	16	6	3	1	75	10	1	51	6	10	0	-1	16
12	38	16	6	3	1	75	10	1	52	6	6	8.48	49	1
12	38	16	6	3	1	75	10	1	53	6	3	43.64	49	1
12	38	16	6	3	1	75	10	1	54	6	8	23.33	49	1
12	38	16	6	3	1	75	10	1	55	16	2	225.44	49	5
12	38	16	6	3	1	75	10	1	56	6	2	675.42	49	14
12	38	16	6	3	1	75	10	1	57	6	10	8.47	49	1
12	38	16	6	3	1	75	10	1	57	6	10	735	49	15
12	38	16	6	3	1	75	10	1	58	6	9	12.92	49	1
12	38	16	6	3	1	75	10	1	59	16	10	60.3	49	2
12	38	16	6	3	1	75	10	1	60	6	1	82.45	49	2
12	38	16	6	3	1	75	10	1	60	6	1	660.51	49	14
12	38	16	6	3	1	75	10	1	61	6	8	0	-1	16
12	38	16	6	3	1	75	10	1	62	6	3	9.83	49	1
12	38	16	6	3	1	75	10	1	62	6	3	761.12	49	16
12	38	16	6	3	1	75	10	1	63	6	6	9.1	49	1
12	38	16	6	3	1	75	10	1	64	6	5	57.93	49	2
12	38	16	6	3	1	75	10	1	64	6	5	757.68	49	16
12	38	16	6	3	1	75	10	1	65	6	7	10.56	49	1
12	38	16	6	3	1	75	10	1	66	6	4	107.62	49	3
12	38	16	6	3	1	75	10	1	66	6	4	776.55	49	16
12	38	16	6	3	1	75	10	1	67	6	7	7.92	49	1
12	38	16	6	3	1	75	10	1	68	6	4	130.53	49	3
12	38	16	6	3	1	75	10	1	69	6	10	24.79	49	1
12	38	16	6	3	1	75	10	1	70	6	2	59.05	49	2
12	38	16	6	3	1	75	10	1	71	6	1	17.67	49	1
12	38	16	6	3	1	75	10	1	72	6	9	42.12	49	1
12	38	16	6	3	1	75	10	1	73	6	5	63.56	49	2
12	38	16	6	3	1	75	10	1	73	6	5	767.19	49	16
12	38	16	6	3	1	75	10	1	74	6	6	12.31	49	1
12	38	16	6	3	1	75	10	1	74	6	6	767.52	49	16
12	38	16	6	3	1	75	10	1	75	6	3	9.65	49	1
12	38	16	6	3	1	75	10	1	76	6	8	17.4	49	1
12	38	16	6	3	1	75	10	1	77	6	5	212.31	49	5
12	38	16	6	3	1	75	10	1	77	6	5	773.4	49	16
12	38	16	6	3	1	75	10	1	78	16	9	7.74	49	1
12	38	16	6	3	1	75	10	1	79	16	6	0	-1	16
12	38	16	6	3	1	75	10	1	80	16	3	0	-1	16
12	38	16	6	3	1	75	10	1	81	16	8	0	-1	16
12	38	16	6	3	1	75	10	1	82	6	4	708.63	49	15
12	38	16	6	3	1	75	10	1	83	16	7	12.69	49	1
12	38	16	6	3	1	75	10	1	84	6	10	0	-1	16
12	38	16	6	3	1	75	10	1	85	6	2	140.07	49	3
12	38	16	6	3	1	75	10	1	86	6	9	140.63	49	3
12	38	16	6	3	1	75	10	1	87	6	7	219.45	49	5
12	38	16	6	3	1	75	10	1	88	6	8	277.36	49	6
12	38	16	6	3	1	75	10	1	89	6	6	141.61	49	3
12	38	16	6	3	1	75	10	1	90	6	3	57.48	49	2
12	38	16	6	3	1	75	10	1	90	6	3	732.69	49	15
12	38	16	6	3	1	75	10	1	91	6	1	7.78	49	1
12	38	16	6	3	1	75	10	1	92	6	7	59.18	49	2
12	38	16	6	3	1	75	10	1	93	16	9	207.33	49	5
12	38	16	6	3	1	75	10	1	94	6	5	607.83	49	13
12	38	16	6	3	1	75	10	1	95	6	2	788.93	49	16
12	38	16	6	3	1	75	10	1	96	6	1	10.75	49	1
12	38	16	6	3	1	75	10	1	97	6	9	62.02	49	2
12	38	16	6	3	1	75	10	1	98	16	2	63.23	49	2
12	38	16	6	3	1	75	10	1	99	6	4	741.39	49	15
12	38	16	6	3	1	75	10	1	100	16	4	8.94	49	1
12	38	16	6	3	1	75	10	1	101	6	10	0	-1	16
12	38	16	6	3	1	75	10	1	102	6	3	169.93	49	4
12	38	16	6	3	1	75	10	1	103	6	6	182.14	49	4
12	38	16	6	3	1	75	10	1	103	6	6	795.34	49	16
12	38	16	6	3	1	75	10	1	104	6	8	7.97	49	1
12	38	16	6	3	1	75	10	1	105	6	5	29.28	49	1
12	38	16	6	3	1	75	10	1	106	6	9	7.88	49	1
12	38	16	6	3	1	75	10	1	106	6	9	757.45	49	16
12	38	16	6	3	1	75	10	1	107	16	10	7.7	49	1
12	38	16	6	3	1	75	10	1	108	6	4	724.26	49	15
12	38	16	6	3	1	75	10	1	109	16	1	11.35	49	1
12	38	16	6	3	1	75	10	1	110	6	2	731.18	49	15
12	38	16	6	3	1	75	10	1	111	6	10	11.17	49	1
12	38	16	6	3	1	75	10	1	112	6	6	177.46	49	4
12	38	16	6	3	1	75	10	1	113	16	5	68.36	49	2
12	38	16	6	3	1	75	10	1	113	16	5	772.32	49	16
12	38	16	6	3	1	75	10	1	114	6	3	9.14	49	1
12	38	16	6	3	1	75	10	1	114	6	3	670.56	49	14
12	38	16	6	3	1	75	10	1	115	6	7	7.73	49	1
12	38	16	6	3	1	75	10	1	116	16	3	172.86	49	4
12	38	16	6	3	1	75	10	1	117	16	6	0	-1	16
12	38	16	6	3	1	75	10	1	118	16	8	0	-1	16
12	38	16	6	3	1	75	10	1	119	6	8	579.46	49	12
12	38	16	6	3	1	75	10	1	120	6	1	659.81	49	14
12	38	16	6	3	1	75	10	1	121	16	5	0	-1	16
12	38	16	6	3	1	75	10	1	122	6	5	460.4	49	10
12	38	16	6	3	1	75	10	1	123	6	2	0	-1	16
12	38	16	6	3	1	75	10	1	124	16	4	13.67	49	1
12	38	16	6	3	1	75	10	1	125	16	9	0	-1	16
12	38	16	6	3	1	75	10	1	126	16	10	0	-1	16
12	38	16	6	3	1	75	10	1	127	6	10	793.83	49	16
12	38	16	6	3	1	75	10	1	128	16	2	7.82	49	1
12	38	16	6	3	1	75	10	1	129	16	6	0	-1	16
12	38	16	6	3	1	75	10	1	130	16	8	0	-1	16
12	38	16	6	3	1	75	10	1	131	16	7	0	-1	16
12	38	16	6	3	1	75	10	1	132	6	9	725.1	49	15
12	38	16	6	3	1	75	10	1	133	6	4	9.14	49	1
12	38	16	6	3	1	75	10	1	133	6	4	727.47	49	15
12	38	16	6	3	1	75	10	1	134	6	8	13.28	49	1
12	38	16	6	3	1	75	10	1	135	6	7	86.92	49	2
12	38	16	6	3	1	75	10	1	136	6	3	10.95	49	1
12	38	16	6	3	1	75	10	1	136	6	3	789.65	49	16
12	38	16	6	3	1	75	10	1	137	6	6	10.89	49	1
12	38	16	6	3	1	75	10	1	137	6	6	691.66	49	14
12	38	16	6	3	1	75	10	1	138	6	1	9.6	49	1
12	38	16	6	3	1	75	10	1	139	16	3	80.72	49	2
12	38	16	6	3	1	75	10	1	140	16	1	612.76	49	13
12	38	16	6	3	1	75	10	1	141	16	6	7.73	49	1
12	38	16	6	3	1	75	10	1	142	6	7	683.58	49	14
12	38	16	6	3	1	75	10	1	143	6	2	7.72	49	1
12	38	16	6	3	1	75	10	1	143	6	2	746.67	49	15
12	38	16	6	3	1	75	10	1	144	16	10	8.17	49	1
12	38	16	6	3	1	75	10	1	145	6	10	61.46	49	2
12	38	16	6	3	1	75	10	1	146	6	4	14.33	49	1
12	38	16	6	3	1	75	10	1	146	6	4	709.96	49	15
12	38	16	6	3	1	75	10	1	147	6	5	10.68	49	1
12	38	16	6	3	1	75	10	1	148	6	1	59.7	49	2
12	38	16	6	3	1	75	10	1	148	6	1	617.25	49	13
12	38	16	6	3	1	75	10	1	149	6	9	691.87	49	14
12	38	16	6	3	1	75	10	1	150	6	6	12.64	49	1
12	38	16	6	3	1	75	10	1	150	6	6	710.22	49	15
12	38	16	6	3	1	75	10	1	151	6	3	9.79	49	1
12	38	16	6	3	1	75	10	1	151	6	3	684.24	49	14
12	38	16	6	3	1	75	10	1	152	6	8	8.47	49	1
12	38	16	6	3	1	75	10	1	153	6	7	89.22	49	2
12	38	16	6	3	1	75	10	1	154	6	9	125.51	49	3
12	38	16	6	3	1	75	10	1	155	6	4	8.29	49	1
12	38	16	6	3	1	75	10	1	155	6	4	717.07	49	15
12	38	16	6	3	1	75	10	1	156	6	2	8.03	49	1
12	38	16	6	3	1	75	10	1	157	6	10	83.12	49	2
12	38	16	6	3	1	75	10	1	157	6	10	707.8	49	15
12	38	16	6	3	1	75	10	1	158	6	5	8.77	49	1
12	38	16	6	3	1	75	10	1	158	6	5	567.48	49	12
12	38	16	6	3	1	75	10	1	159	6	1	759.04	49	16
12	38	16	6	3	1	75	10	1	160	6	3	10.49	49	1
12	38	16	6	3	1	75	10	1	161	16	4	40.33	49	1
12	38	16	6	3	1	75	10	1	162	6	6	712.04	49	15
12	38	16	6	3	1	75	10	1	163	16	8	12.88	49	1
12	38	16	6	3	1	75	10	1	164	6	8	719.18	49	15
12	38	16	6	3	1	75	10	1	165	6	6	8.64	49	1
12	38	16	6	3	1	75	10	1	166	16	7	69.5	49	2
12	38	16	6	3	1	75	10	1	166	16	7	714.94	49	15
12	38	16	6	3	1	75	10	1	167	6	4	8.25	49	1
12	38	16	6	3	1	75	10	1	167	6	4	559.8	49	12
12	38	16	6	3	1	75	10	1	168	6	5	684.58	49	14
12	38	16	6	3	1	75	10	1	169	6	10	7.83	49	1
12	38	16	6	3	1	75	10	1	170	6	9	79.96	49	2
12	38	16	6	3	1	75	10	1	170	6	9	706.96	49	15
12	38	16	6	3	1	75	10	1	171	6	7	8.3	49	1
12	38	16	6	3	1	75	10	1	172	16	5	69.65	49	2
12	38	16	6	3	1	75	10	1	173	6	2	0	-1	16
12	38	16	6	3	1	75	10	1	174	16	2	70.59	49	2
12	38	16	6	3	1	75	10	1	175	6	1	0	-1	16
12	38	16	6	3	1	75	10	1	176	6	8	10.87	49	1
12	38	16	6	3	1	75	10	1	177	6	3	90.39	49	2
12	38	16	6	3	1	75	10	1	178	6	5	8.54	49	1
12	38	16	6	3	1	75	10	1	179	6	4	20.31	49	1
12	38	16	6	3	1	75	10	1	179	6	4	760.29	49	16
12	38	16	6	3	1	75	10	1	180	6	2	10.59	49	1
12	38	16	6	3	1	75	10	1	181	6	10	183.95	49	4
12	38	16	6	3	1	75	10	1	181	6	10	771.32	49	16
12	38	16	6	3	1	75	10	1	182	6	9	8.29	49	1
12	38	16	6	3	1	75	10	1	183	6	6	15.58	49	1
12	38	16	6	3	1	75	10	1	183	6	6	795.01	49	16
12	38	16	6	3	1	75	10	1	184	16	9	9.66	49	1
12	38	16	6	3	1	75	10	1	185	16	1	0	-1	16
12	38	16	6	3	1	75	10	1	186	6	8	0	-1	16
12	38	16	6	3	1	75	10	1	187	6	7	367.62	49	8
12	38	16	6	3	1	75	10	1	188	6	3	81.78	49	2
12	38	16	6	3	1	75	10	1	188	6	3	709.41	49	15
12	38	16	6	3	1	75	10	1	189	6	1	9.02	49	1
12	38	16	6	3	1	75	10	1	189	6	1	708.59	49	15
12	38	16	6	3	1	75	10	1	190	6	6	7.49	49	1
12	38	16	6	3	1	75	10	1	190	6	6	729.28	49	15
12	38	16	6	3	1	75	10	1	191	16	3	8.85	49	1
12	38	16	6	3	1	75	10	1	191	16	3	757.59	49	16
12	38	16	6	3	1	75	10	1	192	6	4	8.62	49	1
12	38	16	6	3	1	75	10	1	192	6	4	659.89	49	14
12	38	16	6	3	1	75	10	1	193	6	1	8.67	49	1
12	38	16	6	3	1	75	10	1	193	6	1	767.82	49	16
12	38	16	6	3	1	75	10	1	194	6	2	7.73	49	1
12	38	16	6	3	1	75	10	1	195	16	6	24.12	49	1
12	38	16	6	3	1	75	10	1	196	6	5	0	-1	16
12	38	16	6	3	1	75	10	1	197	6	9	10.4	49	1
12	38	16	6	3	1	75	10	1	198	16	8	112.54	49	3
12	38	16	6	3	1	75	10	1	199	16	10	0	-1	16
12	38	16	6	3	1	75	10	1	200	6	10	760.84	49	16
12	38	16	6	3	1	75	10	1	201	6	7	9.12	49	1
12	38	16	6	3	1	75	10	1	202	6	8	120.49	49	3
12	38	16	6	3	1	75	10	1	202	6	8	733.32	49	15
12	38	16	6	3	1	75	10	1	203	16	2	8.75	49	1
12	38	16	6	3	1	75	10	1	204	6	3	117.09	49	3
12	38	16	6	3	1	75	10	1	204	6	3	359.34	49	8
12	38	16	6	3	1	75	10	1	204	6	3	715.78	49	15
12	38	16	6	3	1	75	10	1	205	16	7	8.16	49	1
12	38	16	6	3	1	75	10	1	205	16	7	616.02	49	13
12	38	16	6	3	1	75	10	1	206	6	7	657.86	49	14
12	38	16	6	3	1	75	10	1	207	6	1	757.89	49	16
12	38	16	6	3	1	75	10	1	208	6	5	8.41	49	1
12	38	16	6	3	1	75	10	1	208	6	5	674.72	49	14
12	38	16	6	3	1	75	10	1	209	16	1	11.17	49	1
12	38	16	6	3	1	75	10	1	210	6	10	676.94	49	14
12	38	16	6	3	1	75	10	1	211	6	4	11.52	49	1
12	38	16	6	3	1	75	10	1	212	16	4	114.36	49	3
12	38	16	6	3	1	75	10	1	213	6	2	0	-1	16
12	38	16	6	3	1	75	10	1	214	6	9	107.15	49	3
12	38	16	6	3	1	75	10	1	214	6	9	742.14	49	15
12	38	16	6	3	1	75	10	1	215	16	5	8.43	49	1
12	38	16	6	3	1	75	10	1	216	6	3	723.61	49	15
12	38	16	6	3	1	75	10	1	217	6	6	10.44	49	1
12	38	16	6	3	1	75	10	1	218	6	8	29.32	49	1
12	38	16	6	3	1	75	10	1	219	6	6	93.58	49	2
12	38	16	6	3	1	75	10	1	220	6	4	82.32	49	2
12	38	16	6	3	1	75	10	1	221	16	9	12.88	49	1
12	38	16	6	3	1	75	10	1	222	6	9	760.27	49	16
12	38	16	6	3	1	75	10	1	223	6	10	10.8	49	1
12	38	16	6	3	1	75	10	1	223	6	10	711.71	49	15
12	38	16	6	3	1	75	10	1	224	6	1	13.26	49	1
12	38	16	6	3	1	75	10	1	224	6	1	719.32	49	15
12	38	16	6	3	1	75	10	1	225	16	3	9.01	49	1
12	38	16	6	3	1	75	10	1	226	6	2	736.24	49	15
12	38	16	6	3	1	75	10	1	227	6	7	8.11	49	1
12	38	16	6	3	1	75	10	1	228	6	5	179.19	49	4
12	38	16	6	3	1	75	10	1	228	6	5	781.32	49	16
12	38	16	6	3	1	75	10	1	229	6	8	8.56	49	1
12	38	16	6	3	1	75	10	1	229	6	8	759.22	49	16
12	38	16	6	3	1	75	10	1	230	6	3	7.99	49	1
12	38	16	6	3	1	75	10	1	230	6	3	758.3	49	16
12	38	16	6	3	1	75	10	1	231	6	6	8.56	49	1
12	38	16	6	3	1	75	10	1	232	16	6	57.88	49	2
12	38	16	6	3	1	75	10	1	233	16	7	0	-1	16
12	38	16	6	3	1	75	10	1	234	6	5	119.04	49	3
12	38	16	6	3	1	75	10	1	234	6	5	362.77	49	8
12	38	16	6	3	1	75	10	1	235	6	7	760.53	49	16
12	38	16	6	3	1	75	10	1	236	16	8	10.87	49	1
12	38	16	6	3	1	75	10	1	237	6	1	0	-1	16
12	38	16	6	3	1	75	10	1	238	6	2	61.48	49	2
12	38	16	6	3	1	75	10	1	239	6	8	61.96	49	2
12	38	16	6	3	1	75	10	1	240	6	4	110.52	49	3
12	38	16	6	3	1	75	10	1	240	6	4	789.75	49	16
12	38	16	6	3	1	75	10	1	241	6	9	8.3	49	1
12	38	16	6	3	1	75	10	1	242	6	10	31.49	49	1
12	38	16	6	3	1	75	10	1	243	6	3	8.2	49	1
12	38	16	6	3	1	75	10	1	243	6	3	757.43	49	16
12	38	16	6	3	1	75	10	1	244	16	5	8.82	49	1
12	38	16	6	3	1	75	10	1	245	6	7	712.78	49	15
12	38	16	6	3	1	75	10	1	246	6	10	10.27	49	1
12	38	16	6	3	1	75	10	1	247	6	4	112.28	49	3
12	38	16	6	3	1	75	10	1	248	6	2	316.11	49	7
12	38	16	6	3	1	75	10	1	249	6	5	159.91	49	4
12	38	16	6	3	1	75	10	1	250	16	2	19.54	49	1
12	38	16	6	3	1	75	10	1	251	16	1	0	-1	16
12	38	16	6	3	1	75	10	1	252	6	1	0	-1	16
12	38	16	6	3	1	75	10	1	253	16	4	19.82	49	1
12	38	16	6	3	1	75	10	1	254	6	9	721.35	49	15
12	38	16	6	3	1	75	10	1	255	6	6	10.5	49	1
12	38	16	6	3	1	75	10	1	256	6	3	8.58	49	1
12	38	16	6	3	1	75	10	1	256	6	3	772.97	49	16
12	38	16	6	3	1	75	10	1	257	6	8	8.23	49	1
12	38	16	6	3	1	75	10	1	257	6	8	739.87	49	15
12	38	16	6	3	1	75	10	1	258	6	6	8.74	49	1
12	38	16	6	3	1	75	10	1	258	6	6	760.53	49	16
12	38	16	6	3	1	75	10	1	259	6	2	10.52	49	1
12	38	16	6	3	1	75	10	1	260	6	7	41.64	49	1
12	38	16	6	3	1	75	10	1	261	16	9	61.35	49	2
12	38	16	6	3	1	75	10	1	262	6	8	466.88	49	10
12	38	16	6	3	1	75	10	1	263	6	5	558.92	49	12
12	38	16	6	3	1	75	10	1	264	6	9	695.03	49	14
12	38	16	6	3	1	75	10	1	265	16	10	7.61	49	1
12	38	16	6	3	1	75	10	1	266	6	1	130.97	49	3
12	38	16	6	3	1	75	10	1	267	6	4	29.87	49	1
12	38	16	6	3	1	75	10	1	267	6	4	768.35	49	16
12	38	16	6	3	1	75	10	1	268	6	10	7.85	49	1
12	38	16	6	3	1	75	10	1	269	16	3	57.25	49	2
12	38	16	6	3	1	75	10	1	270	6	3	730.19	49	15
12	38	16	6	3	1	75	10	1	271	16	7	10.44	49	1
12	38	16	6	3	1	75	10	1	272	6	6	634.27	49	13
12	38	16	6	3	1	75	10	1	273	16	1	0	-1	16
12	38	16	6	3	1	75	10	1	274	6	8	677.24	49	14
12	38	16	6	3	1	75	10	1	275	6	4	9.56	49	1
12	38	16	6	3	1	75	10	1	275	6	4	716.87	49	15
12	38	16	6	3	1	75	10	1	276	16	10	8.54	49	1
12	38	16	6	3	1	75	10	1	277	6	10	118.23	49	3
12	38	16	6	3	1	75	10	1	277	6	10	759.41	49	16
12	38	16	6	3	1	75	10	1	278	6	2	11.79	49	1
12	38	16	6	3	1	75	10	1	279	6	9	81.95	49	2
12	38	16	6	3	1	75	10	1	279	6	9	716.31	49	15
12	38	16	6	3	1	75	10	1	280	6	1	8.58	49	1
12	38	16	6	3	1	75	10	1	280	6	1	733.67	49	15
12	38	16	6	3	1	75	10	1	281	6	5	7.56	49	1
12	38	16	6	3	1	75	10	1	281	6	5	685.48	49	14
12	38	16	6	3	1	75	10	1	282	6	7	7.46	49	1
12	38	16	6	3	1	75	10	1	283	6	3	290.6	49	6
12	38	16	6	3	1	75	10	1	284	6	2	31.05	49	1
12	38	16	6	3	1	75	10	1	285	6	10	10.99	49	1
12	38	16	6	3	1	75	10	1	286	6	9	160.21	49	4
12	38	16	6	3	1	75	10	1	287	6	8	86.82	49	2
12	38	16	6	3	1	75	10	1	287	6	8	762.62	49	16
12	38	16	6	3	1	75	10	1	288	16	9	12.09	49	1
12	38	16	6	3	1	75	10	1	289	6	5	581.38	49	12
12	38	16	6	3	1	75	10	1	290	6	1	659.77	49	14
12	38	16	6	3	1	75	10	1	291	6	7	7.52	49	1
12	38	16	6	3	1	75	10	1	292	16	2	137.43	49	3
12	38	16	6	3	1	75	10	1	293	6	3	615.82	49	13
12	38	16	6	3	1	75	10	1	294	6	6	782.2	49	16
12	38	16	6	3	1	75	10	1	295	6	4	7.73	49	1
12	38	16	6	3	1	75	10	1	295	6	4	777.41	49	16
12	38	16	6	3	1	75	10	1	296	16	5	8.39	49	1
12	38	16	6	3	1	75	10	1	297	16	4	0	-1	16
12	38	16	6	3	1	75	10	1	298	6	2	736.2	49	15
12	38	16	6	3	1	75	10	1	299	6	9	12.37	49	1
12	38	16	6	3	1	75	10	1	300	6	10	63.06	49	2
12	38	16	6	3	1	75	10	1	300	6	10	779.97	49	16
12	38	16	6	3	1	75	10	1	301	16	6	9.94	49	1
12	38	16	6	3	1	75	10	1	302	6	1	719.57	49	15
12	38	16	6	3	1	75	10	1	303	6	8	10.62	49	1
12	38	16	6	3	1	75	10	1	303	6	8	727.46	49	15
12	38	16	6	3	1	75	10	1	304	16	3	7.87	49	1
12	38	16	6	3	1	75	10	1	305	6	6	674.19	49	14
12	38	16	6	3	1	75	10	1	306	16	8	7.71	49	1
12	38	16	6	3	1	75	10	1	307	6	7	795.69	49	16
12	38	16	6	3	1	75	10	1	308	6	3	7.55	49	1
12	38	16	6	3	1	75	10	1	308	6	3	741.65	49	15
12	38	16	6	3	1	75	10	1	309	16	7	9.16	49	1
12	38	16	6	3	1	75	10	1	310	16	1	0	-1	16
12	38	16	6	3	1	75	10	1	311	6	5	581.64	49	12
12	38	16	6	3	1	75	10	1	312	6	4	676.22	49	14
12	38	16	6	3	1	75	10	1	313	6	7	10.79	49	1
12	38	16	6	3	1	75	10	1	314	16	9	61.36	49	2
12	38	16	6	3	1	75	10	1	315	6	9	591.79	49	12
12	38	16	6	3	1	75	10	1	316	16	4	0	-1	16
12	38	16	6	3	1	75	10	1	317	6	2	766.16	49	16
12	38	16	6	3	1	75	10	1	318	6	4	10.73	49	1
12	38	16	6	3	1	75	10	1	318	6	4	760.5	49	16
12	38	16	6	3	1	75	10	1	319	16	5	7.62	49	1
12	38	16	6	3	1	75	10	1	320	6	5	709.78	49	15
12	38	16	6	3	1	75	10	1	321	6	1	7.61	49	1
12	38	16	6	3	1	75	10	1	321	6	1	764.54	49	16
12	38	16	6	3	1	75	10	1	322	6	10	7.97	49	1
12	38	16	6	3	1	75	10	1	323	16	10	89.67	49	2
12	38	16	6	3	1	75	10	1	324	16	2	0	-1	16
12	38	16	6	3	1	75	10	1	325	6	6	710.69	49	15
12	38	16	6	3	1	75	10	1	326	6	3	10.2	49	1
12	38	16	6	3	1	75	10	1	327	6	8	89.88	49	2
12	38	16	6	3	1	75	10	1	328	6	5	88.36	49	2
12	38	16	6	3	1	75	10	1	328	6	5	773.12	49	16
12	38	16	6	3	1	75	10	1	329	6	10	7.72	49	1
12	38	16	6	3	1	75	10	1	329	6	10	738.98	49	15
12	38	16	6	3	1	75	10	1	330	6	4	7.65	49	1
12	38	16	6	3	1	75	10	1	331	6	9	7.86	49	1
12	38	16	6	3	1	75	10	1	332	6	2	37.5	49	1
12	38	16	6	3	1	75	10	1	333	6	8	60.35	49	2
12	38	16	6	3	1	75	10	1	333	6	8	775.51	49	16
12	38	16	6	3	1	75	10	1	334	6	7	8.5	49	1
12	38	16	6	3	1	75	10	1	335	6	3	12.44	49	1
12	38	16	6	3	1	75	10	1	335	6	3	738.31	49	15
12	38	16	6	3	1	75	10	1	336	6	6	10.66	49	1
12	38	16	6	3	1	75	10	1	337	6	1	72.14	49	2
12	38	16	6	3	1	75	10	1	338	6	7	27.89	49	1
12	38	16	6	3	1	75	10	1	339	6	9	35.53	49	1
12	38	16	6	3	1	75	10	1	340	6	4	27.78	49	1
12	38	16	6	3	1	75	10	1	341	6	10	20.99	49	1
12	38	16	6	3	1	75	10	1	342	6	5	77.69	49	2
12	38	16	6	3	1	75	10	1	342	6	5	764.9	49	16
12	38	16	6	3	1	75	10	1	343	16	6	7.73	49	1
12	38	16	6	3	1	75	10	1	344	16	3	0	-1	16
12	38	16	6	3	1	75	10	1	345	16	8	0	-1	16
12	38	16	6	3	1	75	10	1	346	6	2	0	-1	16
12	38	16	6	3	1	75	10	1	347	16	2	127.86	49	3
12	38	16	6	3	1	75	10	1	348	6	1	70.43	49	2
12	38	16	6	3	1	75	10	1	349	6	3	109.85	49	3
12	38	16	6	3	1	75	10	1	349	6	3	779.98	49	16
12	38	16	6	3	1	75	10	1	350	6	6	10.93	49	1
12	38	16	6	3	1	75	10	1	350	6	6	762.52	49	16
12	38	16	6	3	1	75	10	1	351	6	8	10.15	49	1
12	38	16	6	3	1	75	10	1	352	6	2	158.48	49	4
12	38	16	6	3	1	75	10	1	353	6	9	184.99	49	4
12	38	16	6	3	1	75	10	1	354	6	10	7.75	49	1
12	38	16	6	3	1	75	10	1	355	6	7	92.75	49	2
12	38	16	6	3	1	75	10	1	356	16	9	362.13	49	8
12	38	16	6	3	1	75	10	1	357	6	1	729.5	49	15
12	38	16	6	3	1	75	10	1	358	6	6	10.31	49	1
12	38	16	6	3	1	75	10	1	359	6	5	60.91	49	2
12	38	16	6	3	1	75	10	1	359	6	5	676.34	49	14
12	38	16	6	3	1	75	10	1	360	6	8	0	-1	16
12	38	16	6	3	1	75	10	1	361	6	3	183.08	49	4
12	38	16	6	3	1	75	10	1	361	6	3	785.12	49	16
12	38	16	6	3	1	75	10	1	362	6	4	8.4	49	1
12	38	16	6	3	1	75	10	1	363	6	5	162.58	49	4
12	38	16	6	3	1	75	10	1	363	6	5	759.33	49	16
12	38	16	6	3	1	75	10	1	364	6	2	8.1	49	1
12	38	16	6	3	1	75	10	1	364	6	2	785.44	49	16
12	38	16	6	3	1	75	10	1	365	16	10	57.37	49	2
12	38	16	6	3	1	75	10	1	366	6	10	193.36	49	4
12	38	16	6	3	1	75	10	1	366	6	10	719.23	49	15
12	38	16	6	3	1	75	10	1	367	6	9	9	49	1
12	38	16	6	3	1	75	10	1	367	6	9	665.3	49	14
12	38	16	6	3	1	75	10	1	368	6	4	10.23	49	1
12	38	16	6	3	1	75	10	1	368	6	4	733.1	49	15
12	38	16	6	3	1	75	10	1	369	6	3	10.37	49	1
12	38	16	6	3	1	75	10	1	370	6	8	63.81	49	2
12	38	16	6	3	1	75	10	1	371	6	7	68.57	49	2
12	38	16	6	3	1	75	10	1	372	6	6	110.37	49	3
12	38	16	6	3	1	75	10	1	373	6	1	129.59	49	3
12	38	16	6	3	1	75	10	1	374	6	2	209.17	49	5
12	38	16	6	3	1	75	10	1	375	6	10	36.61	49	1
12	38	16	6	3	1	75	10	1	375	6	10	627.61	49	13
12	38	16	6	3	1	75	10	1	376	6	9	760.03	49	16
12	38	16	6	3	1	75	10	1	377	6	7	8.38	49	1
12	38	16	6	3	1	75	10	1	377	6	7	790.3	49	16
12	38	16	6	3	1	75	10	1	378	16	7	8.12	49	1
12	38	16	6	3	1	75	10	1	378	16	7	757.34	49	16
12	38	16	6	3	1	75	10	1	379	16	3	7.87	49	1
12	38	16	6	3	1	75	10	1	380	16	5	0	-1	16
12	38	16	6	3	1	75	10	1	381	6	5	713.1	49	15
12	38	16	6	3	1	75	10	1	382	16	6	13.71	49	1
12	38	16	6	3	1	75	10	1	383	6	8	0	-1	16
12	38	16	6	3	1	75	10	1	384	6	1	26.03	49	1
12	38	16	6	3	1	75	10	1	385	6	6	62.62	49	2
12	38	16	6	3	1	75	10	1	386	6	3	110.06	49	3
12	38	16	6	3	1	75	10	1	387	16	8	23.4	49	1
12	38	16	6	3	1	75	10	1	388	6	4	657.57	49	14
12	38	16	6	3	1	75	10	1	389	6	7	7.93	49	1
12	38	16	6	3	1	75	10	1	390	6	1	237.06	49	5
12	38	16	6	3	1	75	10	1	391	6	2	8.38	49	1
12	38	16	6	3	1	75	10	1	392	6	5	207.53	49	5
12	38	16	6	3	1	75	10	1	392	6	5	775.73	49	16
12	38	16	6	3	1	75	10	1	393	16	1	8.18	49	1
12	38	16	6	3	1	75	10	1	394	6	10	0	-1	16
12	38	16	6	3	1	75	10	1	395	16	4	42.7	49	1
12	38	16	6	3	1	75	10	1	396	6	4	0	-1	16
12	38	16	6	3	1	75	10	1	397	6	9	11.13	49	1
12	38	16	6	3	1	75	10	1	398	6	6	69.3	49	2
12	38	16	6	3	1	75	10	1	399	6	3	21.43	49	1
12	38	16	6	3	1	75	10	1	399	6	3	258.63	49	6
12	38	16	6	3	1	75	10	1	400	6	8	59.18	49	2
12	38	16	6	3	1	75	10	1	401	16	5	87.43	49	2
12	38	16	6	3	1	75	10	1	402	6	6	187.09	49	4
12	38	16	6	3	1	75	10	1	403	16	9	159.36	49	4
12	38	16	6	3	1	75	10	1	404	6	10	0	-1	16
12	38	16	6	3	1	75	10	1	405	6	9	10.78	49	1
12	38	16	6	3	1	75	10	1	406	16	2	160.42	49	4
12	38	16	6	3	1	75	10	1	407	16	10	711.11	49	15
12	38	16	6	3	1	75	10	1	408	6	5	11.02	49	1
12	38	16	6	3	1	75	10	1	408	6	5	610.42	49	13
12	38	16	6	3	1	75	10	1	409	16	4	0	-1	16
12	38	16	6	3	1	75	10	1	410	16	6	222.03	49	5
12	38	16	6	3	1	75	10	1	411	6	7	0	-1	16
12	38	16	6	3	1	75	10	1	412	16	7	133.28	49	3
12	38	16	6	3	1	75	10	1	413	6	4	621.86	49	13
12	38	16	6	3	1	75	10	1	414	16	8	0	-1	16
12	38	16	6	3	1	75	10	1	415	6	2	609.83	49	13
12	38	16	6	3	1	75	10	1	416	6	1	787.97	49	16
12	38	16	6	3	1	75	10	1	417	6	8	8.35	49	1
12	38	16	6	3	1	75	10	1	418	6	3	17.35	49	1
12	38	16	6	3	1	75	10	1	418	6	3	778.15	49	16
12	38	16	6	3	1	75	10	1	419	6	2	8.52	49	1
12	38	16	6	3	1	75	10	1	419	6	2	793.58	49	16
12	38	16	6	3	1	75	10	1	420	6	10	8.66	49	1
12	38	16	6	3	1	75	10	1	420	6	10	744.27	49	15
12	38	16	6	3	1	75	10	1	421	16	3	10.91	49	1
12	38	16	6	3	1	75	10	1	422	6	9	723.29	49	15
12	38	16	6	3	1	75	10	1	423	16	1	13.54	49	1
12	38	16	6	3	1	75	10	1	424	6	7	787.67	49	16
12	38	16	6	3	1	75	10	1	425	6	6	9.94	49	1
12	38	16	6	3	1	75	10	1	425	6	6	743.92	49	15
12	38	16	6	3	1	75	10	1	426	16	6	8.88	49	1
12	38	16	6	3	1	75	10	1	427	6	5	641.65	49	13
12	38	16	6	3	1	75	10	1	428	16	7	0	-1	16
12	38	16	6	3	1	75	10	1	429	6	8	676.77	49	14
12	38	16	6	3	1	75	10	1	430	6	1	9.18	49	1
12	38	16	6	3	1	75	10	1	431	16	1	47.26	49	1
12	38	16	6	3	1	75	10	1	432	6	3	0	-1	16
12	38	16	6	3	1	75	10	1	433	6	4	173.5	49	4
12	38	16	6	3	1	75	10	1	433	6	4	760.29	49	16
12	38	16	6	3	1	75	10	1	434	6	6	10.98	49	1
12	38	16	6	3	1	75	10	1	434	6	6	212.52	49	5
12	38	16	6	3	1	75	10	1	435	6	1	162.33	49	4
12	38	16	6	3	1	75	10	1	436	6	4	238.19	49	5
12	38	16	6	3	1	75	10	1	437	6	10	236.59	49	5
12	38	16	6	3	1	75	10	1	438	6	5	23.83	49	1
12	38	16	6	3	1	75	10	1	438	6	5	761.18	49	16
12	38	16	6	3	1	75	10	1	439	16	10	10.25	49	1
12	38	16	6	3	1	75	10	1	440	6	7	136.87	49	3
12	38	16	6	3	1	75	10	1	441	6	2	36.69	49	1
12	38	16	6	3	1	75	10	1	442	6	9	133.91	49	3
12	38	16	6	3	1	75	10	1	442	6	9	709.27	49	15
12	38	16	6	3	1	75	10	1	443	6	8	8.03	49	1
12	38	16	6	3	1	75	10	1	443	6	8	736.16	49	15
12	38	16	6	3	1	75	10	1	444	6	3	10.66	49	1
12	38	16	6	3	1	75	10	1	444	6	3	766.61	49	16
12	38	16	6	3	1	75	10	1	445	6	5	14	49	1
12	38	16	6	3	1	75	10	1	446	6	4	28.32	49	1
12	38	16	6	3	1	75	10	1	447	6	9	61.33	49	2
12	38	16	6	3	1	75	10	1	448	6	2	162.51	49	4
12	38	16	6	3	1	75	10	1	449	6	10	124.74	49	3
12	38	16	6	3	1	75	10	1	450	6	8	61.72	49	2
