SubjectNum	Age	Gender	PressedTask	Block Type	Block Repeat Num	Response Rate	Onset	Block	Trial	ImgType	ImgNum	RT	PressedC	FrameC
24	23	16	6	1	1	75	10	1	1	6	5	817.42	49	16
24	23	16	6	1	1	75	10	1	2	6	10	13.4	49	1
24	23	16	6	1	1	75	10	1	3	6	4	110.6	49	3
24	23	16	6	1	1	75	10	1	3	6	4	772.14	49	16
24	23	16	6	1	1	75	10	1	4	6	9	7.78	49	1
24	23	16	6	1	1	75	10	1	4	6	9	761.32	49	16
24	23	16	6	1	1	75	10	1	5	16	7	7.91	49	1
24	23	16	6	1	1	75	10	1	6	6	2	0	-1	16
24	23	16	6	1	1	75	10	1	7	6	3	60.16	49	2
24	23	16	6	1	1	75	10	1	7	6	3	260.36	49	6
24	23	16	6	1	1	75	10	1	8	16	9	66.52	49	2
24	23	16	6	1	1	75	10	1	9	6	8	0	-1	16
24	23	16	6	1	1	75	10	1	10	16	2	59.75	49	2
24	23	16	6	1	1	75	10	1	11	6	7	0	-1	16
24	23	16	6	1	1	75	10	1	12	6	6	272.01	49	6
24	23	16	6	1	1	75	10	1	13	6	1	777.39	49	16
24	23	16	6	1	1	75	10	1	14	16	5	8.45	49	1
24	23	16	6	1	1	75	10	1	15	6	5	207.4	49	5
24	23	16	6	1	1	75	10	1	16	6	2	122.79	49	3
24	23	16	6	1	1	75	10	1	16	6	2	666.45	49	14
24	23	16	6	1	1	75	10	1	17	6	4	8	49	1
24	23	16	6	1	1	75	10	1	18	6	9	71.93	49	2
24	23	16	6	1	1	75	10	1	19	6	10	44.87	49	1
24	23	16	6	1	1	75	10	1	19	6	10	260.08	49	6
24	23	16	6	1	1	75	10	1	20	16	1	357.47	49	8
24	23	16	6	1	1	75	10	1	21	6	3	0	-1	16
24	23	16	6	1	1	75	10	1	22	16	10	285.1	49	6
24	23	16	6	1	1	75	10	1	23	6	7	673.87	49	14
24	23	16	6	1	1	75	10	1	24	16	4	10.45	49	1
24	23	16	6	1	1	75	10	1	25	6	8	765.37	49	16
24	23	16	6	1	1	75	10	1	26	16	3	8.38	49	1
24	23	16	6	1	1	75	10	1	26	16	3	209.74	49	5
24	23	16	6	1	1	75	10	1	27	6	6	724.77	49	15
24	23	16	6	1	1	75	10	1	28	6	1	59.35	49	2
24	23	16	6	1	1	75	10	1	29	6	6	307.44	49	7
24	23	16	6	1	1	75	10	1	30	6	1	160.54	49	4
24	23	16	6	1	1	75	10	1	31	16	6	280.39	49	6
24	23	16	6	1	1	75	10	1	32	6	9	0	-1	16
24	23	16	6	1	1	75	10	1	33	6	8	0	-1	16
24	23	16	6	1	1	75	10	1	34	6	10	0	-1	16
24	23	16	6	1	1	75	10	1	35	16	8	362.37	49	8
24	23	16	6	1	1	75	10	1	36	6	7	763.58	49	16
24	23	16	6	1	1	75	10	1	37	6	4	10.33	49	1
24	23	16	6	1	1	75	10	1	38	6	2	38.04	49	1
24	23	16	6	1	1	75	10	1	39	6	5	138.05	49	3
24	23	16	6	1	1	75	10	1	39	6	5	357.96	49	8
24	23	16	6	1	1	75	10	1	40	16	7	36.87	49	1
24	23	16	6	1	1	75	10	1	41	16	4	0	-1	16
24	23	16	6	1	1	75	10	1	42	6	3	0	-1	16
24	23	16	6	1	1	75	10	1	43	6	7	25.8	49	1
24	23	16	6	1	1	75	10	1	44	6	5	0	-1	16
24	23	16	6	1	1	75	10	1	45	6	2	107.44	49	3
24	23	16	6	1	1	75	10	1	45	6	2	307.49	49	7
24	23	16	6	1	1	75	10	1	46	6	1	0	-1	16
24	23	16	6	1	1	75	10	1	47	6	9	272.04	49	6
24	23	16	6	1	1	75	10	1	47	6	9	507.28	49	11
24	23	16	6	1	1	75	10	1	48	6	4	660.44	49	14
24	23	16	6	1	1	75	10	1	49	16	5	14.28	49	1
24	23	16	6	1	1	75	10	1	49	16	5	382.45	49	8
24	23	16	6	1	1	75	10	1	50	16	1	0	-1	16
24	23	16	6	1	1	75	10	1	51	6	10	0	-1	16
24	23	16	6	1	1	75	10	1	52	6	6	317.52	49	7
24	23	16	6	1	1	75	10	1	53	6	3	136.06	49	3
24	23	16	6	1	1	75	10	1	54	6	8	341.47	49	7
24	23	16	6	1	1	75	10	1	55	16	2	235.79	49	5
24	23	16	6	1	1	75	10	1	55	16	2	460.02	49	10
24	23	16	6	1	1	75	10	1	56	6	2	0	-1	16
24	23	16	6	1	1	75	10	1	57	6	10	119.17	49	3
24	23	16	6	1	1	75	10	1	57	6	10	359.28	49	8
24	23	16	6	1	1	75	10	1	58	6	9	474.17	49	10
24	23	16	6	1	1	75	10	1	59	16	10	662.71	49	14
24	23	16	6	1	1	75	10	1	60	6	1	11.24	49	1
24	23	16	6	1	1	75	10	1	61	6	8	326.89	49	7
24	23	16	6	1	1	75	10	1	62	6	3	226.87	49	5
24	23	16	6	1	1	75	10	1	63	6	6	291.02	49	6
24	23	16	6	1	1	75	10	1	63	6	6	509.17	49	11
24	23	16	6	1	1	75	10	1	64	6	5	57.84	49	2
24	23	16	6	1	1	75	10	1	64	6	5	770.61	49	16
24	23	16	6	1	1	75	10	1	65	6	7	10.46	49	1
24	23	16	6	1	1	75	10	1	66	6	4	0	-1	16
24	23	16	6	1	1	75	10	1	67	6	7	426.01	49	9
24	23	16	6	1	1	75	10	1	68	6	4	0	-1	16
24	23	16	6	1	1	75	10	1	69	6	10	123.68	49	3
24	23	16	6	1	1	75	10	1	69	6	10	357.86	49	8
24	23	16	6	1	1	75	10	1	70	6	2	242.63	49	5
24	23	16	6	1	1	75	10	1	70	6	2	460.94	49	10
24	23	16	6	1	1	75	10	1	71	6	1	126.08	49	3
24	23	16	6	1	1	75	10	1	72	6	9	269.56	49	6
24	23	16	6	1	1	75	10	1	73	6	5	375.32	49	8
24	23	16	6	1	1	75	10	1	73	6	5	607.03	49	13
24	23	16	6	1	1	75	10	1	74	6	6	207.5	49	5
24	23	16	6	1	1	75	10	1	75	6	3	257.53	49	6
24	23	16	6	1	1	75	10	1	75	6	3	457.88	49	10
24	23	16	6	1	1	75	10	1	76	6	8	210.29	49	5
24	23	16	6	1	1	75	10	1	77	6	5	273	49	6
24	23	16	6	1	1	75	10	1	78	16	9	34.62	49	1
24	23	16	6	1	1	75	10	1	78	16	9	259.63	49	6
24	23	16	6	1	1	75	10	1	79	16	6	615.06	49	13
24	23	16	6	1	1	75	10	1	80	16	3	7.63	49	1
24	23	16	6	1	1	75	10	1	81	16	8	771.07	49	16
24	23	16	6	1	1	75	10	1	82	6	4	8.41	49	1
24	23	16	6	1	1	75	10	1	83	16	7	61.13	49	2
24	23	16	6	1	1	75	10	1	83	16	7	307.92	49	7
24	23	16	6	1	1	75	10	1	84	6	10	0	-1	16
24	23	16	6	1	1	75	10	1	85	6	2	159.36	49	4
24	23	16	6	1	1	75	10	1	86	6	9	172.97	49	4
24	23	16	6	1	1	75	10	1	86	6	9	409.24	49	9
24	23	16	6	1	1	75	10	1	87	6	7	294.84	49	6
24	23	16	6	1	1	75	10	1	87	6	7	507.35	49	11
24	23	16	6	1	1	75	10	1	88	6	8	124.32	49	3
24	23	16	6	1	1	75	10	1	88	6	8	360.5	49	8
24	23	16	6	1	1	75	10	1	89	6	6	238.15	49	5
24	23	16	6	1	1	75	10	1	89	6	6	460.02	49	10
24	23	16	6	1	1	75	10	1	90	6	3	392.23	49	8
24	23	16	6	1	1	75	10	1	91	6	1	369.41	49	8
24	23	16	6	1	1	75	10	1	91	6	1	609.23	49	13
24	23	16	6	1	1	75	10	1	92	6	7	273.45	49	6
24	23	16	6	1	1	75	10	1	92	6	7	507.57	49	11
24	23	16	6	1	1	75	10	1	93	16	9	0	-1	16
24	23	16	6	1	1	75	10	1	94	6	5	760.15	49	16
24	23	16	6	1	1	75	10	1	95	6	2	8.57	49	1
24	23	16	6	1	1	75	10	1	96	6	1	383.09	49	8
24	23	16	6	1	1	75	10	1	96	6	1	609.47	49	13
24	23	16	6	1	1	75	10	1	97	6	9	207.1	49	5
24	23	16	6	1	1	75	10	1	97	6	9	409.43	49	9
24	23	16	6	1	1	75	10	1	98	16	2	178.44	49	4
24	23	16	6	1	1	75	10	1	99	6	4	177.08	49	4
24	23	16	6	1	1	75	10	1	100	16	4	26.34	49	1
24	23	16	6	1	1	75	10	1	100	16	4	260.43	49	6
24	23	16	6	1	1	75	10	1	101	6	10	64.37	49	2
24	23	16	6	1	1	75	10	1	101	6	10	773.59	49	16
24	23	16	6	1	1	75	10	1	102	6	3	8.02	49	1
24	23	16	6	1	1	75	10	1	102	6	3	782.16	49	16
24	23	16	6	1	1	75	10	1	103	6	6	9.19	49	1
24	23	16	6	1	1	75	10	1	104	6	8	193.41	49	4
24	23	16	6	1	1	75	10	1	104	6	8	407.45	49	9
24	23	16	6	1	1	75	10	1	105	6	5	217.3	49	5
24	23	16	6	1	1	75	10	1	105	6	5	743.28	49	15
24	23	16	6	1	1	75	10	1	106	6	9	10.87	49	1
24	23	16	6	1	1	75	10	1	106	6	9	211.15	49	5
24	23	16	6	1	1	75	10	1	106	6	9	657.64	49	14
24	23	16	6	1	1	75	10	1	107	16	10	7.76	49	1
24	23	16	6	1	1	75	10	1	107	16	10	542.39	49	11
24	23	16	6	1	1	75	10	1	107	16	10	770.04	49	16
24	23	16	6	1	1	75	10	1	108	6	4	609.22	49	13
24	23	16	6	1	1	75	10	1	109	16	1	7.83	49	1
24	23	16	6	1	1	75	10	1	110	6	2	0	-1	16
24	23	16	6	1	1	75	10	1	111	6	10	8.78	49	1
24	23	16	6	1	1	75	10	1	111	6	10	210	49	5
24	23	16	6	1	1	75	10	1	112	6	6	129.09	49	3
24	23	16	6	1	1	75	10	1	112	6	6	359.79	49	8
24	23	16	6	1	1	75	10	1	113	16	5	77.61	49	2
24	23	16	6	1	1	75	10	1	113	16	5	309.56	49	7
24	23	16	6	1	1	75	10	1	114	6	3	0	-1	16
24	23	16	6	1	1	75	10	1	115	6	7	178.59	49	4
24	23	16	6	1	1	75	10	1	116	16	3	172.71	49	4
24	23	16	6	1	1	75	10	1	116	16	3	407.49	49	9
24	23	16	6	1	1	75	10	1	117	16	6	0	-1	16
24	23	16	6	1	1	75	10	1	118	16	8	0	-1	16
24	23	16	6	1	1	75	10	1	119	6	8	0	-1	16
24	23	16	6	1	1	75	10	1	120	6	1	157.61	49	4
24	23	16	6	1	1	75	10	1	120	6	1	366.1	49	8
24	23	16	6	1	1	75	10	1	121	16	5	19.55	49	1
24	23	16	6	1	1	75	10	1	121	16	5	260.49	49	6
24	23	16	6	1	1	75	10	1	122	6	5	0	-1	16
24	23	16	6	1	1	75	10	1	123	6	2	109.96	49	3
24	23	16	6	1	1	75	10	1	124	16	4	341.18	49	7
24	23	16	6	1	1	75	10	1	124	16	4	558.6	49	12
24	23	16	6	1	1	75	10	1	125	16	9	0	-1	16
24	23	16	6	1	1	75	10	1	126	16	10	0	-1	16
24	23	16	6	1	1	75	10	1	127	6	10	80.81	49	2
24	23	16	6	1	1	75	10	1	127	6	10	307.23	49	7
24	23	16	6	1	1	75	10	1	127	6	10	761.76	49	16
24	23	16	6	1	1	75	10	1	128	16	2	10.57	49	1
24	23	16	6	1	1	75	10	1	128	16	2	260.21	49	6
24	23	16	6	1	1	75	10	1	129	16	6	359.97	49	8
24	23	16	6	1	1	75	10	1	130	16	8	0	-1	16
24	23	16	6	1	1	75	10	1	131	16	7	0	-1	16
24	23	16	6	1	1	75	10	1	132	6	9	757.75	49	16
24	23	16	6	1	1	75	10	1	133	6	4	10.48	49	1
24	23	16	6	1	1	75	10	1	134	6	8	164.24	49	4
24	23	16	6	1	1	75	10	1	135	6	7	214.21	49	5
24	23	16	6	1	1	75	10	1	135	6	7	459.58	49	10
24	23	16	6	1	1	75	10	1	136	6	3	0	-1	16
24	23	16	6	1	1	75	10	1	137	6	6	71.16	49	2
24	23	16	6	1	1	75	10	1	138	6	1	29.32	49	1
24	23	16	6	1	1	75	10	1	139	16	3	510.07	49	11
24	23	16	6	1	1	75	10	1	139	16	3	710.14	49	15
24	23	16	6	1	1	75	10	1	140	16	1	0	-1	16
24	23	16	6	1	1	75	10	1	141	16	6	0	-1	16
24	23	16	6	1	1	75	10	1	142	6	7	759.71	49	16
24	23	16	6	1	1	75	10	1	143	6	2	9.08	49	1
24	23	16	6	1	1	75	10	1	144	16	10	87.48	49	2
24	23	16	6	1	1	75	10	1	145	6	10	0	-1	16
24	23	16	6	1	1	75	10	1	146	6	4	87.68	49	2
24	23	16	6	1	1	75	10	1	146	6	4	307.26	49	7
24	23	16	6	1	1	75	10	1	147	6	5	175.49	49	4
24	23	16	6	1	1	75	10	1	148	6	1	226.8	49	5
24	23	16	6	1	1	75	10	1	149	6	9	157.54	49	4
24	23	16	6	1	1	75	10	1	150	6	6	160.29	49	4
24	23	16	6	1	1	75	10	1	151	6	3	225.85	49	5
24	23	16	6	1	1	75	10	1	152	6	8	242.06	49	5
24	23	16	6	1	1	75	10	1	152	6	8	460.13	49	10
24	23	16	6	1	1	75	10	1	153	6	7	209.61	49	5
24	23	16	6	1	1	75	10	1	154	6	9	0	-1	16
24	23	16	6	1	1	75	10	1	155	6	4	109.41	49	3
24	23	16	6	1	1	75	10	1	155	6	4	335.64	49	7
24	23	16	6	1	1	75	10	1	156	6	2	127.62	49	3
24	23	16	6	1	1	75	10	1	156	6	2	357.24	49	8
24	23	16	6	1	1	75	10	1	157	6	10	294.94	49	6
24	23	16	6	1	1	75	10	1	157	6	10	507.56	49	11
24	23	16	6	1	1	75	10	1	158	6	5	243.22	49	5
24	23	16	6	1	1	75	10	1	159	6	1	177.69	49	4
24	23	16	6	1	1	75	10	1	159	6	1	407.38	49	9
24	23	16	6	1	1	75	10	1	160	6	3	171.53	49	4
24	23	16	6	1	1	75	10	1	161	16	4	66.15	49	2
24	23	16	6	1	1	75	10	1	162	6	6	0	-1	16
24	23	16	6	1	1	75	10	1	163	16	8	191.72	49	4
24	23	16	6	1	1	75	10	1	164	6	8	0	-1	16
24	23	16	6	1	1	75	10	1	165	6	6	16.5	49	1
24	23	16	6	1	1	75	10	1	165	6	6	257.65	49	6
24	23	16	6	1	1	75	10	1	166	16	7	544.42	49	11
24	23	16	6	1	1	75	10	1	167	6	4	0	-1	16
24	23	16	6	1	1	75	10	1	168	6	5	110.31	49	3
24	23	16	6	1	1	75	10	1	169	6	10	73.31	49	2
24	23	16	6	1	1	75	10	1	169	6	10	307.48	49	7
24	23	16	6	1	1	75	10	1	170	6	9	190.2	49	4
24	23	16	6	1	1	75	10	1	171	6	7	357.91	49	8
24	23	16	6	1	1	75	10	1	171	6	7	558.12	49	12
24	23	16	6	1	1	75	10	1	172	16	5	359.23	49	8
24	23	16	6	1	1	75	10	1	173	6	2	779.34	49	16
24	23	16	6	1	1	75	10	1	174	16	2	11.01	49	1
24	23	16	6	1	1	75	10	1	175	6	1	0	-1	16
24	23	16	6	1	1	75	10	1	176	6	8	8.1	49	1
24	23	16	6	1	1	75	10	1	177	6	3	68.62	49	2
24	23	16	6	1	1	75	10	1	178	6	5	240.88	49	5
24	23	16	6	1	1	75	10	1	179	6	4	57.84	49	2
24	23	16	6	1	1	75	10	1	180	6	2	60.21	49	2
24	23	16	6	1	1	75	10	1	180	6	2	315.88	49	7
24	23	16	6	1	1	75	10	1	181	6	10	112.43	49	3
24	23	16	6	1	1	75	10	1	182	6	9	159.58	49	4
24	23	16	6	1	1	75	10	1	182	6	9	359.95	49	8
24	23	16	6	1	1	75	10	1	182	6	9	784.17	49	16
24	23	16	6	1	1	75	10	1	183	6	6	7.91	49	1
24	23	16	6	1	1	75	10	1	183	6	6	209.43	49	5
24	23	16	6	1	1	75	10	1	183	6	6	787.86	49	16
24	23	16	6	1	1	75	10	1	184	16	9	7.87	49	1
24	23	16	6	1	1	75	10	1	185	16	1	0	-1	16
24	23	16	6	1	1	75	10	1	186	6	8	0	-1	16
24	23	16	6	1	1	75	10	1	187	6	7	114.9	49	3
24	23	16	6	1	1	75	10	1	188	6	3	794.14	49	16
24	23	16	6	1	1	75	10	1	189	6	1	8.37	49	1
24	23	16	6	1	1	75	10	1	189	6	1	209.63	49	5
24	23	16	6	1	1	75	10	1	189	6	1	762.47	49	16
24	23	16	6	1	1	75	10	1	190	6	6	8.05	49	1
24	23	16	6	1	1	75	10	1	190	6	6	209	49	5
24	23	16	6	1	1	75	10	1	191	16	3	60.35	49	2
24	23	16	6	1	1	75	10	1	191	16	3	261.02	49	6
24	23	16	6	1	1	75	10	1	192	6	4	0	-1	16
24	23	16	6	1	1	75	10	1	193	6	1	25.62	49	1
24	23	16	6	1	1	75	10	1	193	6	1	259.92	49	6
24	23	16	6	1	1	75	10	1	194	6	2	158.41	49	4
24	23	16	6	1	1	75	10	1	194	6	2	407.17	49	9
24	23	16	6	1	1	75	10	1	195	16	6	642.45	49	13
24	23	16	6	1	1	75	10	1	196	6	5	7.56	49	1
24	23	16	6	1	1	75	10	1	197	6	9	170.75	49	4
24	23	16	6	1	1	75	10	1	197	6	9	775.82	49	16
24	23	16	6	1	1	75	10	1	198	16	8	10.77	49	1
24	23	16	6	1	1	75	10	1	198	16	8	788.2	49	16
24	23	16	6	1	1	75	10	1	199	16	10	8.51	49	1
24	23	16	6	1	1	75	10	1	199	16	10	209.88	49	5
24	23	16	6	1	1	75	10	1	200	6	10	0	-1	16
24	23	16	6	1	1	75	10	1	201	6	7	218.71	49	5
24	23	16	6	1	1	75	10	1	201	6	7	459.21	49	10
24	23	16	6	1	1	75	10	1	202	6	8	0	-1	16
24	23	16	6	1	1	75	10	1	203	16	2	207.93	49	5
24	23	16	6	1	1	75	10	1	204	6	3	357.2	49	8
24	23	16	6	1	1	75	10	1	204	6	3	557.37	49	12
24	23	16	6	1	1	75	10	1	205	16	7	407.53	49	9
24	23	16	6	1	1	75	10	1	206	6	7	0	-1	16
24	23	16	6	1	1	75	10	1	207	6	1	57.79	49	2
24	23	16	6	1	1	75	10	1	207	6	1	259.43	49	6
24	23	16	6	1	1	75	10	1	207	6	1	787.74	49	16
24	23	16	6	1	1	75	10	1	208	6	5	8.44	49	1
24	23	16	6	1	1	75	10	1	208	6	5	209.3	49	5
24	23	16	6	1	1	75	10	1	208	6	5	677.02	49	14
24	23	16	6	1	1	75	10	1	209	16	1	7.66	49	1
24	23	16	6	1	1	75	10	1	210	6	10	0	-1	16
24	23	16	6	1	1	75	10	1	211	6	4	160.45	49	4
24	23	16	6	1	1	75	10	1	211	6	4	411.08	49	9
24	23	16	6	1	1	75	10	1	212	16	4	57.34	49	2
24	23	16	6	1	1	75	10	1	212	16	4	259.75	49	6
24	23	16	6	1	1	75	10	1	213	6	2	0	-1	16
24	23	16	6	1	1	75	10	1	214	6	9	38.7	49	1
24	23	16	6	1	1	75	10	1	214	6	9	259	49	6
24	23	16	6	1	1	75	10	1	215	16	5	276.93	49	6
24	23	16	6	1	1	75	10	1	216	6	3	260.16	49	6
24	23	16	6	1	1	75	10	1	216	6	3	507.07	49	11
24	23	16	6	1	1	75	10	1	217	6	6	66.95	49	2
24	23	16	6	1	1	75	10	1	218	6	8	217.58	49	5
24	23	16	6	1	1	75	10	1	218	6	8	459.88	49	10
24	23	16	6	1	1	75	10	1	219	6	6	181.83	49	4
24	23	16	6	1	1	75	10	1	219	6	6	409.28	49	9
24	23	16	6	1	1	75	10	1	220	6	4	80.38	49	2
24	23	16	6	1	1	75	10	1	220	6	4	281.31	49	6
24	23	16	6	1	1	75	10	1	221	16	9	69.98	49	2
24	23	16	6	1	1	75	10	1	221	16	9	307.7	49	7
24	23	16	6	1	1	75	10	1	222	6	9	0	-1	16
24	23	16	6	1	1	75	10	1	223	6	10	58.28	49	2
24	23	16	6	1	1	75	10	1	223	6	10	259.85	49	6
24	23	16	6	1	1	75	10	1	224	6	1	166.84	49	4
24	23	16	6	1	1	75	10	1	224	6	1	409.62	49	9
24	23	16	6	1	1	75	10	1	225	16	3	276.35	49	6
24	23	16	6	1	1	75	10	1	226	6	2	0	-1	16
24	23	16	6	1	1	75	10	1	227	6	7	108.51	49	3
24	23	16	6	1	1	75	10	1	227	6	7	310.6	49	7
24	23	16	6	1	1	75	10	1	228	6	5	573.71	49	12
24	23	16	6	1	1	75	10	1	229	6	8	7.83	49	1
24	23	16	6	1	1	75	10	1	229	6	8	792.85	49	16
24	23	16	6	1	1	75	10	1	230	6	3	7.84	49	1
24	23	16	6	1	1	75	10	1	230	6	3	774.67	49	16
24	23	16	6	1	1	75	10	1	231	6	6	7.79	49	1
24	23	16	6	1	1	75	10	1	231	6	6	209.05	49	5
24	23	16	6	1	1	75	10	1	232	16	6	11.27	49	1
24	23	16	6	1	1	75	10	1	233	16	7	0	-1	16
24	23	16	6	1	1	75	10	1	234	6	5	0	-1	16
24	23	16	6	1	1	75	10	1	235	6	7	0	-1	16
24	23	16	6	1	1	75	10	1	236	16	8	0	-1	16
24	23	16	6	1	1	75	10	1	237	6	1	787.5	49	16
24	23	16	6	1	1	75	10	1	238	6	2	9.09	49	1
24	23	16	6	1	1	75	10	1	239	6	8	31.04	49	1
24	23	16	6	1	1	75	10	1	239	6	8	260.23	49	6
24	23	16	6	1	1	75	10	1	240	6	4	292.18	49	6
24	23	16	6	1	1	75	10	1	240	6	4	507.43	49	11
24	23	16	6	1	1	75	10	1	241	6	9	312.89	49	7
24	23	16	6	1	1	75	10	1	242	6	10	309.31	49	7
24	23	16	6	1	1	75	10	1	242	6	10	509.43	49	11
24	23	16	6	1	1	75	10	1	243	6	3	390.53	49	8
24	23	16	6	1	1	75	10	1	244	16	5	357.17	49	8
24	23	16	6	1	1	75	10	1	245	6	7	0	-1	16
24	23	16	6	1	1	75	10	1	246	6	10	0	-1	16
24	23	16	6	1	1	75	10	1	247	6	4	90.47	49	2
24	23	16	6	1	1	75	10	1	247	6	4	307.7	49	7
24	23	16	6	1	1	75	10	1	248	6	2	124.76	49	3
24	23	16	6	1	1	75	10	1	248	6	2	359.37	49	8
24	23	16	6	1	1	75	10	1	249	6	5	75.07	49	2
24	23	16	6	1	1	75	10	1	249	6	5	309.01	49	7
24	23	16	6	1	1	75	10	1	250	16	2	21.47	49	1
24	23	16	6	1	1	75	10	1	251	16	1	0	-1	16
24	23	16	6	1	1	75	10	1	252	6	1	0	-1	16
24	23	16	6	1	1	75	10	1	253	16	4	39.01	49	1
24	23	16	6	1	1	75	10	1	254	6	9	757.5	49	16
24	23	16	6	1	1	75	10	1	255	6	6	7.9	49	1
24	23	16	6	1	1	75	10	1	256	6	3	73.63	49	2
24	23	16	6	1	1	75	10	1	257	6	8	43.77	49	1
24	23	16	6	1	1	75	10	1	257	6	8	260.17	49	6
24	23	16	6	1	1	75	10	1	258	6	6	185.96	49	4
24	23	16	6	1	1	75	10	1	259	6	2	159.16	49	4
24	23	16	6	1	1	75	10	1	259	6	2	359.29	49	8
24	23	16	6	1	1	75	10	1	260	6	7	116.01	49	3
24	23	16	6	1	1	75	10	1	261	16	9	0	-1	16
24	23	16	6	1	1	75	10	1	262	6	8	0	-1	16
24	23	16	6	1	1	75	10	1	263	6	5	125.71	49	3
24	23	16	6	1	1	75	10	1	264	6	9	108	49	3
24	23	16	6	1	1	75	10	1	265	16	10	78.46	49	2
24	23	16	6	1	1	75	10	1	265	16	10	307.28	49	7
24	23	16	6	1	1	75	10	1	266	6	1	790.85	49	16
24	23	16	6	1	1	75	10	1	267	6	4	8.55	49	1
24	23	16	6	1	1	75	10	1	267	6	4	775.4	49	16
24	23	16	6	1	1	75	10	1	268	6	10	10.46	49	1
24	23	16	6	1	1	75	10	1	269	16	3	110.13	49	3
24	23	16	6	1	1	75	10	1	269	16	3	310.17	49	7
24	23	16	6	1	1	75	10	1	270	6	3	707.5	49	15
24	23	16	6	1	1	75	10	1	271	16	7	7.97	49	1
24	23	16	6	1	1	75	10	1	272	6	6	738.45	49	15
24	23	16	6	1	1	75	10	1	273	16	1	10.58	49	1
24	23	16	6	1	1	75	10	1	274	6	8	743.96	49	15
24	23	16	6	1	1	75	10	1	275	6	4	7.93	49	1
24	23	16	6	1	1	75	10	1	275	6	4	234.18	49	5
24	23	16	6	1	1	75	10	1	276	16	10	113.44	49	3
24	23	16	6	1	1	75	10	1	277	6	10	709.2	49	15
24	23	16	6	1	1	75	10	1	278	6	2	7.88	49	1
24	23	16	6	1	1	75	10	1	279	6	9	121.36	49	3
24	23	16	6	1	1	75	10	1	280	6	1	131.9	49	3
24	23	16	6	1	1	75	10	1	280	6	1	359.95	49	8
24	23	16	6	1	1	75	10	1	281	6	5	416.55	49	9
24	23	16	6	1	1	75	10	1	282	6	7	0	-1	16
24	23	16	6	1	1	75	10	1	283	6	3	0	-1	16
24	23	16	6	1	1	75	10	1	284	6	2	481.63	49	10
24	23	16	6	1	1	75	10	1	284	6	2	707.04	49	15
24	23	16	6	1	1	75	10	1	285	6	10	574.37	49	12
24	23	16	6	1	1	75	10	1	286	6	9	0	-1	16
24	23	16	6	1	1	75	10	1	287	6	8	87.57	49	2
24	23	16	6	1	1	75	10	1	287	6	8	307.04	49	7
24	23	16	6	1	1	75	10	1	288	16	9	8.47	49	1
24	23	16	6	1	1	75	10	1	288	16	9	209.28	49	5
24	23	16	6	1	1	75	10	1	289	6	5	691.01	49	14
24	23	16	6	1	1	75	10	1	290	6	1	10.48	49	1
24	23	16	6	1	1	75	10	1	291	6	7	142.68	49	3
24	23	16	6	1	1	75	10	1	291	6	7	357.66	49	8
24	23	16	6	1	1	75	10	1	292	16	2	0	-1	16
24	23	16	6	1	1	75	10	1	293	6	3	0	-1	16
24	23	16	6	1	1	75	10	1	294	6	6	71.57	49	2
24	23	16	6	1	1	75	10	1	295	6	4	38.78	49	1
24	23	16	6	1	1	75	10	1	295	6	4	257.59	49	6
24	23	16	6	1	1	75	10	1	295	6	4	773.49	49	16
24	23	16	6	1	1	75	10	1	296	16	5	7.95	49	1
24	23	16	6	1	1	75	10	1	296	16	5	209.39	49	5
24	23	16	6	1	1	75	10	1	297	16	4	0	-1	16
24	23	16	6	1	1	75	10	1	298	6	2	0	-1	16
24	23	16	6	1	1	75	10	1	299	6	9	60.43	49	2
24	23	16	6	1	1	75	10	1	300	6	10	59.06	49	2
24	23	16	6	1	1	75	10	1	300	6	10	307.86	49	7
24	23	16	6	1	1	75	10	1	301	16	6	85.78	49	2
24	23	16	6	1	1	75	10	1	301	16	6	307.14	49	7
24	23	16	6	1	1	75	10	1	302	6	1	784.47	49	16
24	23	16	6	1	1	75	10	1	303	6	8	7.8	49	1
24	23	16	6	1	1	75	10	1	303	6	8	765.8	49	16
24	23	16	6	1	1	75	10	1	304	16	3	10.68	49	1
24	23	16	6	1	1	75	10	1	304	16	3	726.76	49	15
24	23	16	6	1	1	75	10	1	305	6	6	7.88	49	1
24	23	16	6	1	1	75	10	1	305	6	6	760.37	49	16
24	23	16	6	1	1	75	10	1	306	16	8	10.61	49	1
24	23	16	6	1	1	75	10	1	307	6	7	0	-1	16
24	23	16	6	1	1	75	10	1	308	6	3	682.35	49	14
24	23	16	6	1	1	75	10	1	309	16	7	7.62	49	1
24	23	16	6	1	1	75	10	1	310	16	1	0	-1	16
24	23	16	6	1	1	75	10	1	311	6	5	19.16	49	1
24	23	16	6	1	1	75	10	1	311	6	5	260.22	49	6
24	23	16	6	1	1	75	10	1	311	6	5	694.79	49	14
24	23	16	6	1	1	75	10	1	312	6	4	8.18	49	1
24	23	16	6	1	1	75	10	1	313	6	7	67.56	49	2
24	23	16	6	1	1	75	10	1	314	16	9	0	-1	16
24	23	16	6	1	1	75	10	1	315	6	9	108.99	49	3
24	23	16	6	1	1	75	10	1	315	6	9	359	49	8
24	23	16	6	1	1	75	10	1	316	16	4	28.73	49	1
24	23	16	6	1	1	75	10	1	317	6	2	0	-1	16
24	23	16	6	1	1	75	10	1	318	6	4	129.1	49	3
24	23	16	6	1	1	75	10	1	319	16	5	132.39	49	3
24	23	16	6	1	1	75	10	1	320	6	5	195.09	49	4
24	23	16	6	1	1	75	10	1	320	6	5	780.36	49	16
24	23	16	6	1	1	75	10	1	321	6	1	8.46	49	1
24	23	16	6	1	1	75	10	1	322	6	10	57.67	49	2
24	23	16	6	1	1	75	10	1	322	6	10	258.27	49	6
24	23	16	6	1	1	75	10	1	323	16	10	293.87	49	6
24	23	16	6	1	1	75	10	1	324	16	2	779	49	16
24	23	16	6	1	1	75	10	1	325	6	6	8.23	49	1
24	23	16	6	1	1	75	10	1	325	6	6	259.56	49	6
24	23	16	6	1	1	75	10	1	326	6	3	159.47	49	4
24	23	16	6	1	1	75	10	1	326	6	3	359.75	49	8
24	23	16	6	1	1	75	10	1	327	6	8	245.29	49	5
24	23	16	6	1	1	75	10	1	328	6	5	357.31	49	8
24	23	16	6	1	1	75	10	1	328	6	5	560	49	12
24	23	16	6	1	1	75	10	1	329	6	10	36.43	49	1
24	23	16	6	1	1	75	10	1	329	6	10	760.58	49	16
24	23	16	6	1	1	75	10	1	330	6	4	7.98	49	1
24	23	16	6	1	1	75	10	1	331	6	9	385.82	49	8
24	23	16	6	1	1	75	10	1	331	6	9	609.47	49	13
24	23	16	6	1	1	75	10	1	332	6	2	584.83	49	12
24	23	16	6	1	1	75	10	1	333	6	8	207.3	49	5
24	23	16	6	1	1	75	10	1	334	6	7	425.34	49	9
24	23	16	6	1	1	75	10	1	335	6	3	0	-1	16
24	23	16	6	1	1	75	10	1	336	6	6	138.64	49	3
24	23	16	6	1	1	75	10	1	337	6	1	286.75	49	6
24	23	16	6	1	1	75	10	1	338	6	7	112.4	49	3
24	23	16	6	1	1	75	10	1	339	6	9	0	-1	16
24	23	16	6	1	1	75	10	1	340	6	4	27.14	49	1
24	23	16	6	1	1	75	10	1	340	6	4	707.55	49	15
24	23	16	6	1	1	75	10	1	341	6	10	7.94	49	1
24	23	16	6	1	1	75	10	1	341	6	10	737.47	49	15
24	23	16	6	1	1	75	10	1	342	6	5	7.7	49	1
24	23	16	6	1	1	75	10	1	342	6	5	758.23	49	16
24	23	16	6	1	1	75	10	1	343	16	6	8.06	49	1
24	23	16	6	1	1	75	10	1	344	16	3	0	-1	16
24	23	16	6	1	1	75	10	1	345	16	8	0	-1	16
24	23	16	6	1	1	75	10	1	346	6	2	0	-1	16
24	23	16	6	1	1	75	10	1	347	16	2	7.75	49	1
24	23	16	6	1	1	75	10	1	347	16	2	209.86	49	5
24	23	16	6	1	1	75	10	1	348	6	1	785.52	49	16
24	23	16	6	1	1	75	10	1	349	6	3	8.33	49	1
24	23	16	6	1	1	75	10	1	349	6	3	709.5	49	15
24	23	16	6	1	1	75	10	1	350	6	6	8.98	49	1
24	23	16	6	1	1	75	10	1	351	6	8	94.86	49	2
24	23	16	6	1	1	75	10	1	351	6	8	307.18	49	7
24	23	16	6	1	1	75	10	1	352	6	2	141.66	49	3
24	23	16	6	1	1	75	10	1	352	6	2	357.25	49	8
24	23	16	6	1	1	75	10	1	353	6	9	386.21	49	8
24	23	16	6	1	1	75	10	1	353	6	9	609.94	49	13
24	23	16	6	1	1	75	10	1	354	6	10	222.7	49	5
24	23	16	6	1	1	75	10	1	354	6	10	457.58	49	10
24	23	16	6	1	1	75	10	1	355	6	7	208.4	49	5
24	23	16	6	1	1	75	10	1	356	16	9	0	-1	16
24	23	16	6	1	1	75	10	1	357	6	1	771.91	49	16
24	23	16	6	1	1	75	10	1	358	6	6	10.53	49	1
24	23	16	6	1	1	75	10	1	358	6	6	710.14	49	15
24	23	16	6	1	1	75	10	1	359	6	5	7.64	49	1
24	23	16	6	1	1	75	10	1	359	6	5	657.35	49	14
24	23	16	6	1	1	75	10	1	360	6	8	7.93	49	1
24	23	16	6	1	1	75	10	1	361	6	3	58.05	49	2
24	23	16	6	1	1	75	10	1	361	6	3	259.22	49	6
24	23	16	6	1	1	75	10	1	361	6	3	785.52	49	16
24	23	16	6	1	1	75	10	1	362	6	4	7.77	49	1
24	23	16	6	1	1	75	10	1	362	6	4	793.89	49	16
24	23	16	6	1	1	75	10	1	363	6	5	10.72	49	1
24	23	16	6	1	1	75	10	1	363	6	5	757.18	49	16
24	23	16	6	1	1	75	10	1	364	6	2	8.48	49	1
24	23	16	6	1	1	75	10	1	364	6	2	738.83	49	15
24	23	16	6	1	1	75	10	1	365	16	10	9.31	49	1
24	23	16	6	1	1	75	10	1	366	6	10	0	-1	16
24	23	16	6	1	1	75	10	1	367	6	9	8.28	49	1
24	23	16	6	1	1	75	10	1	368	6	4	178.46	49	4
24	23	16	6	1	1	75	10	1	369	6	3	19.93	49	1
24	23	16	6	1	1	75	10	1	370	6	8	160.49	49	4
24	23	16	6	1	1	75	10	1	371	6	7	157.24	49	4
24	23	16	6	1	1	75	10	1	371	6	7	769.45	49	16
24	23	16	6	1	1	75	10	1	372	6	6	8.71	49	1
24	23	16	6	1	1	75	10	1	373	6	1	86.51	49	2
24	23	16	6	1	1	75	10	1	374	6	2	86.99	49	2
24	23	16	6	1	1	75	10	1	375	6	10	260.03	49	6
24	23	16	6	1	1	75	10	1	376	6	9	108.8	49	3
24	23	16	6	1	1	75	10	1	377	6	7	61.65	49	2
24	23	16	6	1	1	75	10	1	378	16	7	0	-1	16
24	23	16	6	1	1	75	10	1	379	16	3	0	-1	16
24	23	16	6	1	1	75	10	1	380	16	5	0	-1	16
24	23	16	6	1	1	75	10	1	381	6	5	0	-1	16
24	23	16	6	1	1	75	10	1	382	16	6	142.54	49	3
24	23	16	6	1	1	75	10	1	383	6	8	123.6	49	3
24	23	16	6	1	1	75	10	1	384	6	1	94.45	49	2
24	23	16	6	1	1	75	10	1	385	6	6	139.07	49	3
24	23	16	6	1	1	75	10	1	386	6	3	40.08	49	1
24	23	16	6	1	1	75	10	1	386	6	3	257.31	49	6
24	23	16	6	1	1	75	10	1	387	16	8	179.89	49	4
24	23	16	6	1	1	75	10	1	387	16	8	410.11	49	9
24	23	16	6	1	1	75	10	1	388	6	4	59.99	49	2
24	23	16	6	1	1	75	10	1	388	6	4	632.38	49	13
24	23	16	6	1	1	75	10	1	389	6	7	0	-1	16
24	23	16	6	1	1	75	10	1	390	6	1	134.6	49	3
24	23	16	6	1	1	75	10	1	390	6	1	357.63	49	8
24	23	16	6	1	1	75	10	1	391	6	2	107.23	49	3
24	23	16	6	1	1	75	10	1	391	6	2	307.37	49	7
24	23	16	6	1	1	75	10	1	392	6	5	84.51	49	2
24	23	16	6	1	1	75	10	1	392	6	5	307.14	49	7
24	23	16	6	1	1	75	10	1	393	16	1	0	-1	16
24	23	16	6	1	1	75	10	1	394	6	10	212.46	49	5
24	23	16	6	1	1	75	10	1	394	6	10	460.19	49	10
24	23	16	6	1	1	75	10	1	395	16	4	0	-1	16
24	23	16	6	1	1	75	10	1	396	6	4	0	-1	16
24	23	16	6	1	1	75	10	1	397	6	9	57.37	49	2
24	23	16	6	1	1	75	10	1	397	6	9	307.55	49	7
24	23	16	6	1	1	75	10	1	398	6	6	13.42	49	1
24	23	16	6	1	1	75	10	1	398	6	6	785.59	49	16
24	23	16	6	1	1	75	10	1	399	6	3	8.7	49	1
24	23	16	6	1	1	75	10	1	399	6	3	209.99	49	5
24	23	16	6	1	1	75	10	1	400	6	8	61.87	49	2
24	23	16	6	1	1	75	10	1	401	16	5	373.31	49	8
24	23	16	6	1	1	75	10	1	402	6	6	209.69	49	5
24	23	16	6	1	1	75	10	1	402	6	6	728.65	49	15
24	23	16	6	1	1	75	10	1	403	16	9	7.9	49	1
24	23	16	6	1	1	75	10	1	404	6	10	0	-1	16
24	23	16	6	1	1	75	10	1	405	6	9	27.3	49	1
24	23	16	6	1	1	75	10	1	405	6	9	792.22	49	16
24	23	16	6	1	1	75	10	1	406	16	2	8.3	49	1
24	23	16	6	1	1	75	10	1	406	16	2	210.06	49	5
24	23	16	6	1	1	75	10	1	407	16	10	789.4	49	16
24	23	16	6	1	1	75	10	1	408	6	5	12.23	49	1
24	23	16	6	1	1	75	10	1	408	6	5	680.83	49	14
24	23	16	6	1	1	75	10	1	409	16	4	8.66	49	1
24	23	16	6	1	1	75	10	1	409	16	4	712.07	49	15
24	23	16	6	1	1	75	10	1	410	16	6	10.58	49	1
24	23	16	6	1	1	75	10	1	411	6	7	0	-1	16
24	23	16	6	1	1	75	10	1	412	16	7	0	-1	16
24	23	16	6	1	1	75	10	1	413	6	4	0	-1	16
24	23	16	6	1	1	75	10	1	414	16	8	7.81	49	1
24	23	16	6	1	1	75	10	1	414	16	8	257.25	49	6
24	23	16	6	1	1	75	10	1	415	6	2	342.04	49	7
24	23	16	6	1	1	75	10	1	415	6	2	557.31	49	12
24	23	16	6	1	1	75	10	1	416	6	1	531.06	49	11
24	23	16	6	1	1	75	10	1	417	6	8	367.52	49	8
24	23	16	6	1	1	75	10	1	418	6	3	119.92	49	3
24	23	16	6	1	1	75	10	1	419	6	2	72.05	49	2
24	23	16	6	1	1	75	10	1	420	6	10	57.4	49	2
24	23	16	6	1	1	75	10	1	420	6	10	259.02	49	6
24	23	16	6	1	1	75	10	1	421	16	3	118.66	49	3
24	23	16	6	1	1	75	10	1	422	6	9	0	-1	16
24	23	16	6	1	1	75	10	1	423	16	1	315.14	49	7
24	23	16	6	1	1	75	10	1	424	6	7	0	-1	16
24	23	16	6	1	1	75	10	1	425	6	6	115.23	49	3
24	23	16	6	1	1	75	10	1	426	16	6	22.07	49	1
24	23	16	6	1	1	75	10	1	426	16	6	258.05	49	6
24	23	16	6	1	1	75	10	1	427	6	5	791.05	49	16
24	23	16	6	1	1	75	10	1	428	16	7	7.99	49	1
24	23	16	6	1	1	75	10	1	428	16	7	210.01	49	5
24	23	16	6	1	1	75	10	1	429	6	8	757.3	49	16
24	23	16	6	1	1	75	10	1	430	6	1	7.95	49	1
24	23	16	6	1	1	75	10	1	430	6	1	209.63	49	5
24	23	16	6	1	1	75	10	1	430	6	1	740.64	49	15
24	23	16	6	1	1	75	10	1	431	16	1	8.21	49	1
24	23	16	6	1	1	75	10	1	432	6	3	0	-1	16
24	23	16	6	1	1	75	10	1	433	6	4	59.93	49	2
24	23	16	6	1	1	75	10	1	434	6	6	8.36	49	1
24	23	16	6	1	1	75	10	1	434	6	6	210.07	49	5
24	23	16	6	1	1	75	10	1	435	6	1	107.92	49	3
24	23	16	6	1	1	75	10	1	436	6	4	459.3	49	10
24	23	16	6	1	1	75	10	1	436	6	4	659.68	49	14
24	23	16	6	1	1	75	10	1	437	6	10	22.37	49	1
24	23	16	6	1	1	75	10	1	438	6	5	167.58	49	4
24	23	16	6	1	1	75	10	1	439	16	10	11.85	49	1
24	23	16	6	1	1	75	10	1	440	6	7	0	-1	16
24	23	16	6	1	1	75	10	1	441	6	2	114.3	49	3
24	23	16	6	1	1	75	10	1	441	6	2	357.85	49	8
24	23	16	6	1	1	75	10	1	442	6	9	224.37	49	5
24	23	16	6	1	1	75	10	1	443	6	8	226.69	49	5
24	23	16	6	1	1	75	10	1	444	6	3	80.32	49	2
24	23	16	6	1	1	75	10	1	444	6	3	773.31	49	16
24	23	16	6	1	1	75	10	1	445	6	5	10.46	49	1
24	23	16	6	1	1	75	10	1	445	6	5	787.23	49	16
24	23	16	6	1	1	75	10	1	446	6	4	10.26	49	1
24	23	16	6	1	1	75	10	1	446	6	4	763.88	49	16
24	23	16	6	1	1	75	10	1	447	6	9	7.89	49	1
24	23	16	6	1	1	75	10	1	448	6	2	71.06	49	2
24	23	16	6	1	1	75	10	1	448	6	2	309.48	49	7
24	23	16	6	1	1	75	10	1	449	6	10	7.84	49	1
24	23	16	6	1	1	75	10	1	449	6	10	209.37	49	5
24	23	16	6	1	1	75	10	1	450	6	8	20.46	49	1
