SubjectNum	Age	Gender	PressedTask	Block Type	Block Repeat Num	Response Rate	Onset	Block	Trial	ImgType	ImgNum	RT	PressedC	FrameC
11	28	9	6	3	1	75	10	1	1	6	5	558.33	49	11
11	28	9	6	3	1	75	10	1	1	6	5	803.87	49	16
11	28	9	6	3	1	75	10	1	2	6	10	645.08	49	13
11	28	9	6	3	1	75	10	1	3	6	4	10.57	49	1
11	28	9	6	3	1	75	10	1	3	6	4	766.45	49	16
11	28	9	6	3	1	75	10	1	4	6	9	9.28	49	1
11	28	9	6	3	1	75	10	1	5	16	7	8.79	49	1
11	28	9	6	3	1	75	10	1	5	16	7	257.83	49	6
11	28	9	6	3	1	75	10	1	6	6	2	607.29	49	13
11	28	9	6	3	1	75	10	1	7	6	3	7.9	49	1
11	28	9	6	3	1	75	10	1	7	6	3	664.19	49	14
11	28	9	6	3	1	75	10	1	8	16	9	7.72	49	1
11	28	9	6	3	1	75	10	1	9	6	8	662.52	49	14
11	28	9	6	3	1	75	10	1	10	16	2	11.17	49	1
11	28	9	6	3	1	75	10	1	10	16	2	735.09	49	15
11	28	9	6	3	1	75	10	1	11	6	7	10.06	49	1
11	28	9	6	3	1	75	10	1	11	6	7	732.08	49	15
11	28	9	6	3	1	75	10	1	12	6	6	10.55	49	1
11	28	9	6	3	1	75	10	1	13	6	1	38.52	49	1
11	28	9	6	3	1	75	10	1	13	6	1	260.35	49	6
11	28	9	6	3	1	75	10	1	14	16	5	61.56	49	2
11	28	9	6	3	1	75	10	1	14	16	5	262.84	49	6
11	28	9	6	3	1	75	10	1	15	6	5	560.86	49	12
11	28	9	6	3	1	75	10	1	16	6	2	661.02	49	14
11	28	9	6	3	1	75	10	1	17	6	4	8.62	49	1
11	28	9	6	3	1	75	10	1	17	6	4	659.9	49	14
11	28	9	6	3	1	75	10	1	18	6	9	8.47	49	1
11	28	9	6	3	1	75	10	1	18	6	9	657.81	49	14
11	28	9	6	3	1	75	10	1	19	6	10	7.89	49	1
11	28	9	6	3	1	75	10	1	19	6	10	686.27	49	14
11	28	9	6	3	1	75	10	1	20	16	1	7.69	49	1
11	28	9	6	3	1	75	10	1	21	6	3	57.46	49	2
11	28	9	6	3	1	75	10	1	21	6	3	307.14	49	7
11	28	9	6	3	1	75	10	1	21	6	3	507.31	49	11
11	28	9	6	3	1	75	10	1	22	16	10	107.69	49	3
11	28	9	6	3	1	75	10	1	22	16	10	307.98	49	7
11	28	9	6	3	1	75	10	1	23	6	7	57.62	49	2
11	28	9	6	3	1	75	10	1	23	6	7	310.11	49	7
11	28	9	6	3	1	75	10	1	23	6	7	794.49	49	16
11	28	9	6	3	1	75	10	1	24	16	4	11.1	49	1
11	28	9	6	3	1	75	10	1	25	6	8	60.25	49	2
11	28	9	6	3	1	75	10	1	25	6	8	270.82	49	6
11	28	9	6	3	1	75	10	1	26	16	3	229.5	49	5
11	28	9	6	3	1	75	10	1	26	16	3	467.43	49	10
11	28	9	6	3	1	75	10	1	27	6	6	0	-1	16
11	28	9	6	3	1	75	10	1	28	6	1	19.69	49	1
11	28	9	6	3	1	75	10	1	28	6	1	258.29	49	6
11	28	9	6	3	1	75	10	1	29	6	6	9.08	49	1
11	28	9	6	3	1	75	10	1	30	6	1	107.76	49	3
11	28	9	6	3	1	75	10	1	31	16	6	31.67	49	1
11	28	9	6	3	1	75	10	1	31	16	6	257.01	49	6
11	28	9	6	3	1	75	10	1	32	6	9	409.84	49	9
11	28	9	6	3	1	75	10	1	32	6	9	609.86	49	13
11	28	9	6	3	1	75	10	1	33	6	8	765.25	49	16
11	28	9	6	3	1	75	10	1	34	6	10	8.86	49	1
11	28	9	6	3	1	75	10	1	34	6	10	209.48	49	5
11	28	9	6	3	1	75	10	1	34	6	10	409.52	49	9
11	28	9	6	3	1	75	10	1	35	16	8	59.67	49	2
11	28	9	6	3	1	75	10	1	35	16	8	308	49	7
11	28	9	6	3	1	75	10	1	36	6	7	260.53	49	6
11	28	9	6	3	1	75	10	1	36	6	7	512.74	49	11
11	28	9	6	3	1	75	10	1	37	6	4	230.91	49	5
11	28	9	6	3	1	75	10	1	37	6	4	459.84	49	10
11	28	9	6	3	1	75	10	1	38	6	2	165.06	49	4
11	28	9	6	3	1	75	10	1	38	6	2	410.63	49	9
11	28	9	6	3	1	75	10	1	39	6	5	11.18	49	1
11	28	9	6	3	1	75	10	1	39	6	5	259.88	49	6
11	28	9	6	3	1	75	10	1	39	6	5	686.88	49	14
11	28	9	6	3	1	75	10	1	40	16	7	8.93	49	1
11	28	9	6	3	1	75	10	1	40	16	7	684.39	49	14
11	28	9	6	3	1	75	10	1	41	16	4	11.37	49	1
11	28	9	6	3	1	75	10	1	41	16	4	258.27	49	6
11	28	9	6	3	1	75	10	1	42	6	3	0	-1	16
11	28	9	6	3	1	75	10	1	43	6	7	9.38	49	1
11	28	9	6	3	1	75	10	1	43	6	7	209.7	49	5
11	28	9	6	3	1	75	10	1	43	6	7	691.62	49	14
11	28	9	6	3	1	75	10	1	44	6	5	8.3	49	1
11	28	9	6	3	1	75	10	1	44	6	5	259.42	49	6
11	28	9	6	3	1	75	10	1	44	6	5	786.7	49	16
11	28	9	6	3	1	75	10	1	45	6	2	8.07	49	1
11	28	9	6	3	1	75	10	1	45	6	2	257.47	49	6
11	28	9	6	3	1	75	10	1	46	6	1	60.67	49	2
11	28	9	6	3	1	75	10	1	46	6	1	307.06	49	7
11	28	9	6	3	1	75	10	1	46	6	1	767.24	49	16
11	28	9	6	3	1	75	10	1	47	6	9	8.34	49	1
11	28	9	6	3	1	75	10	1	47	6	9	210.21	49	5
11	28	9	6	3	1	75	10	1	48	6	4	188.63	49	4
11	28	9	6	3	1	75	10	1	48	6	4	410.26	49	9
11	28	9	6	3	1	75	10	1	49	16	5	61.7	49	2
11	28	9	6	3	1	75	10	1	49	16	5	311.42	49	7
11	28	9	6	3	1	75	10	1	50	16	1	61.59	49	2
11	28	9	6	3	1	75	10	1	50	16	1	262.71	49	6
11	28	9	6	3	1	75	10	1	51	6	10	0	-1	16
11	28	9	6	3	1	75	10	1	52	6	6	43.46	49	1
11	28	9	6	3	1	75	10	1	52	6	6	258.34	49	6
11	28	9	6	3	1	75	10	1	52	6	6	740.75	49	15
11	28	9	6	3	1	75	10	1	53	6	3	9.3	49	1
11	28	9	6	3	1	75	10	1	53	6	3	210.41	49	5
11	28	9	6	3	1	75	10	1	53	6	3	780.61	49	16
11	28	9	6	3	1	75	10	1	54	6	8	8.01	49	1
11	28	9	6	3	1	75	10	1	54	6	8	257.72	49	6
11	28	9	6	3	1	75	10	1	55	16	2	183.99	49	4
11	28	9	6	3	1	75	10	1	56	6	2	260.1	49	6
11	28	9	6	3	1	75	10	1	56	6	2	460.19	49	10
11	28	9	6	3	1	75	10	1	57	6	10	291.06	49	6
11	28	9	6	3	1	75	10	1	57	6	10	507.13	49	11
11	28	9	6	3	1	75	10	1	58	6	9	309.36	49	7
11	28	9	6	3	1	75	10	1	58	6	9	509.45	49	11
11	28	9	6	3	1	75	10	1	59	16	10	233.91	49	5
11	28	9	6	3	1	75	10	1	59	16	10	457.82	49	10
11	28	9	6	3	1	75	10	1	60	6	1	208.2	49	5
11	28	9	6	3	1	75	10	1	60	6	1	408.45	49	9
11	28	9	6	3	1	75	10	1	61	6	8	280.98	49	6
11	28	9	6	3	1	75	10	1	61	6	8	509.65	49	11
11	28	9	6	3	1	75	10	1	62	6	3	381.44	49	8
11	28	9	6	3	1	75	10	1	62	6	3	610.13	49	13
11	28	9	6	3	1	75	10	1	63	6	6	112.98	49	3
11	28	9	6	3	1	75	10	1	63	6	6	362.85	49	8
11	28	9	6	3	1	75	10	1	64	6	5	10.24	49	1
11	28	9	6	3	1	75	10	1	65	6	7	9.55	49	1
11	28	9	6	3	1	75	10	1	65	6	7	210.52	49	5
11	28	9	6	3	1	75	10	1	65	6	7	762.31	49	16
11	28	9	6	3	1	75	10	1	66	6	4	8	49	1
11	28	9	6	3	1	75	10	1	66	6	4	257.47	49	6
11	28	9	6	3	1	75	10	1	66	6	4	670.02	49	14
11	28	9	6	3	1	75	10	1	67	6	7	7.94	49	1
11	28	9	6	3	1	75	10	1	67	6	7	608.59	49	13
11	28	9	6	3	1	75	10	1	68	6	4	8.52	49	1
11	28	9	6	3	1	75	10	1	68	6	4	581.45	49	12
11	28	9	6	3	1	75	10	1	69	6	10	7.92	49	1
11	28	9	6	3	1	75	10	1	69	6	10	562.83	49	12
11	28	9	6	3	1	75	10	1	70	6	2	8.27	49	1
11	28	9	6	3	1	75	10	1	70	6	2	788.51	49	16
11	28	9	6	3	1	75	10	1	71	6	1	8.53	49	1
11	28	9	6	3	1	75	10	1	72	6	9	9.54	49	1
11	28	9	6	3	1	75	10	1	72	6	9	210.8	49	5
11	28	9	6	3	1	75	10	1	73	6	5	123.31	49	3
11	28	9	6	3	1	75	10	1	73	6	5	360.1	49	8
11	28	9	6	3	1	75	10	1	73	6	5	786.61	49	16
11	28	9	6	3	1	75	10	1	74	6	6	10.92	49	1
11	28	9	6	3	1	75	10	1	74	6	6	712.3	49	15
11	28	9	6	3	1	75	10	1	75	6	3	10.86	49	1
11	28	9	6	3	1	75	10	1	75	6	3	211.97	49	5
11	28	9	6	3	1	75	10	1	76	6	8	169.5	49	4
11	28	9	6	3	1	75	10	1	76	6	8	409.81	49	9
11	28	9	6	3	1	75	10	1	77	6	5	108.88	49	3
11	28	9	6	3	1	75	10	1	77	6	5	310.13	49	7
11	28	9	6	3	1	75	10	1	77	6	5	758.25	49	16
11	28	9	6	3	1	75	10	1	78	16	9	11.67	49	1
11	28	9	6	3	1	75	10	1	79	16	6	34.25	49	1
11	28	9	6	3	1	75	10	1	79	16	6	257.16	49	6
11	28	9	6	3	1	75	10	1	80	16	3	0	-1	16
11	28	9	6	3	1	75	10	1	81	16	8	0	-1	16
11	28	9	6	3	1	75	10	1	82	6	4	0	-1	16
11	28	9	6	3	1	75	10	1	83	16	7	11.35	49	1
11	28	9	6	3	1	75	10	1	83	16	7	260.65	49	6
11	28	9	6	3	1	75	10	1	83	16	7	665.01	49	14
11	28	9	6	3	1	75	10	1	84	6	10	8.91	49	1
11	28	9	6	3	1	75	10	1	84	6	10	258.11	49	6
11	28	9	6	3	1	75	10	1	85	6	2	216.46	49	5
11	28	9	6	3	1	75	10	1	85	6	2	460.43	49	10
11	28	9	6	3	1	75	10	1	86	6	9	267.36	49	6
11	28	9	6	3	1	75	10	1	86	6	9	511.32	49	11
11	28	9	6	3	1	75	10	1	87	6	7	187.6	49	4
11	28	9	6	3	1	75	10	1	87	6	7	410.03	49	9
11	28	9	6	3	1	75	10	1	88	6	8	209.79	49	5
11	28	9	6	3	1	75	10	1	88	6	8	412.37	49	9
11	28	9	6	3	1	75	10	1	89	6	6	109.53	49	3
11	28	9	6	3	1	75	10	1	89	6	6	360.14	49	8
11	28	9	6	3	1	75	10	1	90	6	3	23.94	49	1
11	28	9	6	3	1	75	10	1	90	6	3	258.81	49	6
11	28	9	6	3	1	75	10	1	91	6	1	123.07	49	3
11	28	9	6	3	1	75	10	1	91	6	1	359.23	49	8
11	28	9	6	3	1	75	10	1	92	6	7	616.09	49	13
11	28	9	6	3	1	75	10	1	93	16	9	8.14	49	1
11	28	9	6	3	1	75	10	1	93	16	9	464.56	49	10
11	28	9	6	3	1	75	10	1	93	16	9	707.64	49	15
11	28	9	6	3	1	75	10	1	94	6	5	8.05	49	1
11	28	9	6	3	1	75	10	1	94	6	5	209.95	49	5
11	28	9	6	3	1	75	10	1	94	6	5	690.27	49	14
11	28	9	6	3	1	75	10	1	95	6	2	8.08	49	1
11	28	9	6	3	1	75	10	1	95	6	2	741.95	49	15
11	28	9	6	3	1	75	10	1	96	6	1	7.94	49	1
11	28	9	6	3	1	75	10	1	96	6	1	209.39	49	5
11	28	9	6	3	1	75	10	1	97	6	9	209.89	49	5
11	28	9	6	3	1	75	10	1	97	6	9	457.89	49	10
11	28	9	6	3	1	75	10	1	98	16	2	510.22	49	11
11	28	9	6	3	1	75	10	1	98	16	2	760	49	16
11	28	9	6	3	1	75	10	1	99	6	4	10.51	49	1
11	28	9	6	3	1	75	10	1	100	16	4	0	-1	16
11	28	9	6	3	1	75	10	1	101	6	10	416.16	49	9
11	28	9	6	3	1	75	10	1	101	6	10	661.17	49	14
11	28	9	6	3	1	75	10	1	102	6	3	9.17	49	1
11	28	9	6	3	1	75	10	1	102	6	3	209.28	49	5
11	28	9	6	3	1	75	10	1	102	6	3	686.75	49	14
11	28	9	6	3	1	75	10	1	103	6	6	8.24	49	1
11	28	9	6	3	1	75	10	1	103	6	6	257.58	49	6
11	28	9	6	3	1	75	10	1	104	6	8	19.62	49	1
11	28	9	6	3	1	75	10	1	104	6	8	259.68	49	6
11	28	9	6	3	1	75	10	1	104	6	8	459.89	49	10
11	28	9	6	3	1	75	10	1	105	6	5	157.56	49	4
11	28	9	6	3	1	75	10	1	105	6	5	357.79	49	8
11	28	9	6	3	1	75	10	1	105	6	5	559.58	49	12
11	28	9	6	3	1	75	10	1	106	6	9	317.47	49	7
11	28	9	6	3	1	75	10	1	106	6	9	559.08	49	12
11	28	9	6	3	1	75	10	1	107	16	10	287.95	49	6
11	28	9	6	3	1	75	10	1	107	16	10	508.48	49	11
11	28	9	6	3	1	75	10	1	108	6	4	394.58	49	8
11	28	9	6	3	1	75	10	1	108	6	4	607.16	49	13
11	28	9	6	3	1	75	10	1	109	16	1	715.2	49	15
11	28	9	6	3	1	75	10	1	110	6	2	9.75	49	1
11	28	9	6	3	1	75	10	1	110	6	2	210.12	49	5
11	28	9	6	3	1	75	10	1	111	6	10	226.11	49	5
11	28	9	6	3	1	75	10	1	111	6	10	461.95	49	10
11	28	9	6	3	1	75	10	1	112	6	6	60.7	49	2
11	28	9	6	3	1	75	10	1	112	6	6	312.56	49	7
11	28	9	6	3	1	75	10	1	113	16	5	27.08	49	1
11	28	9	6	3	1	75	10	1	113	16	5	260.3	49	6
11	28	9	6	3	1	75	10	1	114	6	3	639.35	49	13
11	28	9	6	3	1	75	10	1	115	6	7	8.71	49	1
11	28	9	6	3	1	75	10	1	115	6	7	210.05	49	5
11	28	9	6	3	1	75	10	1	115	6	7	744.6	49	15
11	28	9	6	3	1	75	10	1	116	16	3	8.13	49	1
11	28	9	6	3	1	75	10	1	116	16	3	209.57	49	5
11	28	9	6	3	1	75	10	1	117	16	6	777.4	49	16
11	28	9	6	3	1	75	10	1	118	16	8	8.22	49	1
11	28	9	6	3	1	75	10	1	118	16	8	257.4	49	6
11	28	9	6	3	1	75	10	1	118	16	8	707.32	49	15
11	28	9	6	3	1	75	10	1	119	6	8	10.98	49	1
11	28	9	6	3	1	75	10	1	120	6	1	140.38	49	3
11	28	9	6	3	1	75	10	1	120	6	1	360.19	49	8
11	28	9	6	3	1	75	10	1	121	16	5	172.97	49	4
11	28	9	6	3	1	75	10	1	121	16	5	407.38	49	9
11	28	9	6	3	1	75	10	1	122	6	5	228.99	49	5
11	28	9	6	3	1	75	10	1	122	6	5	459.91	49	10
11	28	9	6	3	1	75	10	1	123	6	2	283.31	49	6
11	28	9	6	3	1	75	10	1	123	6	2	511.92	49	11
11	28	9	6	3	1	75	10	1	124	16	4	192.53	49	4
11	28	9	6	3	1	75	10	1	124	16	4	410.14	49	9
11	28	9	6	3	1	75	10	1	125	16	9	41.95	49	1
11	28	9	6	3	1	75	10	1	125	16	9	261.98	49	6
11	28	9	6	3	1	75	10	1	126	16	10	758.34	49	16
11	28	9	6	3	1	75	10	1	127	6	10	8.78	49	1
11	28	9	6	3	1	75	10	1	127	6	10	259.77	49	6
11	28	9	6	3	1	75	10	1	128	16	2	370.05	49	8
11	28	9	6	3	1	75	10	1	128	16	2	610.93	49	13
11	28	9	6	3	1	75	10	1	129	16	6	460.31	49	10
11	28	9	6	3	1	75	10	1	129	16	6	710.02	49	15
11	28	9	6	3	1	75	10	1	130	16	8	562.53	49	12
11	28	9	6	3	1	75	10	1	131	16	7	7.85	49	1
11	28	9	6	3	1	75	10	1	131	16	7	558.52	49	12
11	28	9	6	3	1	75	10	1	132	6	9	10.99	49	1
11	28	9	6	3	1	75	10	1	132	6	9	644.29	49	13
11	28	9	6	3	1	75	10	1	133	6	4	10.81	49	1
11	28	9	6	3	1	75	10	1	133	6	4	708.74	49	15
11	28	9	6	3	1	75	10	1	134	6	8	9.89	49	1
11	28	9	6	3	1	75	10	1	134	6	8	209.93	49	5
11	28	9	6	3	1	75	10	1	135	6	7	81.18	49	2
11	28	9	6	3	1	75	10	1	135	6	7	312.49	49	7
11	28	9	6	3	1	75	10	1	136	6	3	210.48	49	5
11	28	9	6	3	1	75	10	1	136	6	3	412.92	49	9
11	28	9	6	3	1	75	10	1	137	6	6	188.05	49	4
11	28	9	6	3	1	75	10	1	137	6	6	410.24	49	9
11	28	9	6	3	1	75	10	1	138	6	1	124.03	49	3
11	28	9	6	3	1	75	10	1	138	6	1	358.69	49	8
11	28	9	6	3	1	75	10	1	138	6	1	560.72	49	12
11	28	9	6	3	1	75	10	1	139	16	3	124.01	49	3
11	28	9	6	3	1	75	10	1	139	16	3	360.1	49	8
11	28	9	6	3	1	75	10	1	140	16	1	488.24	49	10
11	28	9	6	3	1	75	10	1	140	16	1	707.82	49	15
11	28	9	6	3	1	75	10	1	141	16	6	7.93	49	1
11	28	9	6	3	1	75	10	1	142	6	7	668.13	49	14
11	28	9	6	3	1	75	10	1	143	6	2	7.91	49	1
11	28	9	6	3	1	75	10	1	144	16	10	62.71	49	2
11	28	9	6	3	1	75	10	1	144	16	10	309.06	49	7
11	28	9	6	3	1	75	10	1	145	6	10	127.46	49	3
11	28	9	6	3	1	75	10	1	145	6	10	358.54	49	8
11	28	9	6	3	1	75	10	1	146	6	4	114.86	49	3
11	28	9	6	3	1	75	10	1	146	6	4	360.75	49	8
11	28	9	6	3	1	75	10	1	147	6	5	84.64	49	2
11	28	9	6	3	1	75	10	1	147	6	5	310.37	49	7
11	28	9	6	3	1	75	10	1	147	6	5	761.82	49	16
11	28	9	6	3	1	75	10	1	148	6	1	13.5	49	1
11	28	9	6	3	1	75	10	1	148	6	1	260.12	49	6
11	28	9	6	3	1	75	10	1	148	6	1	769.9	49	16
11	28	9	6	3	1	75	10	1	149	6	9	11.91	49	1
11	28	9	6	3	1	75	10	1	149	6	9	262.45	49	6
11	28	9	6	3	1	75	10	1	150	6	6	311.44	49	7
11	28	9	6	3	1	75	10	1	150	6	6	561.1	49	12
11	28	9	6	3	1	75	10	1	151	6	3	233.71	49	5
11	28	9	6	3	1	75	10	1	151	6	3	459.68	49	10
11	28	9	6	3	1	75	10	1	152	6	8	328.58	49	7
11	28	9	6	3	1	75	10	1	152	6	8	559.35	49	12
11	28	9	6	3	1	75	10	1	152	6	8	759.51	49	16
11	28	9	6	3	1	75	10	1	153	6	7	8.21	49	1
11	28	9	6	3	1	75	10	1	154	6	9	75.95	49	2
11	28	9	6	3	1	75	10	1	154	6	9	310.39	49	7
11	28	9	6	3	1	75	10	1	155	6	4	142.38	49	3
11	28	9	6	3	1	75	10	1	155	6	4	358.13	49	8
11	28	9	6	3	1	75	10	1	156	6	2	193.05	49	4
11	28	9	6	3	1	75	10	1	156	6	2	410.17	49	9
11	28	9	6	3	1	75	10	1	157	6	10	0	-1	16
11	28	9	6	3	1	75	10	1	158	6	5	335.21	49	7
11	28	9	6	3	1	75	10	1	158	6	5	560.33	49	12
11	28	9	6	3	1	75	10	1	159	6	1	76.94	49	2
11	28	9	6	3	1	75	10	1	159	6	1	309.88	49	7
11	28	9	6	3	1	75	10	1	159	6	1	790.58	49	16
11	28	9	6	3	1	75	10	1	160	6	3	11.11	49	1
11	28	9	6	3	1	75	10	1	160	6	3	212.04	49	5
11	28	9	6	3	1	75	10	1	160	6	3	762.23	49	16
11	28	9	6	3	1	75	10	1	161	16	4	11.56	49	1
11	28	9	6	3	1	75	10	1	161	16	4	261.79	49	6
11	28	9	6	3	1	75	10	1	161	16	4	760.06	49	16
11	28	9	6	3	1	75	10	1	162	6	6	9.75	49	1
11	28	9	6	3	1	75	10	1	162	6	6	210.45	49	5
11	28	9	6	3	1	75	10	1	162	6	6	458.68	49	10
11	28	9	6	3	1	75	10	1	162	6	6	709.09	49	15
11	28	9	6	3	1	75	10	1	163	16	8	9.12	49	1
11	28	9	6	3	1	75	10	1	163	16	8	257.75	49	6
11	28	9	6	3	1	75	10	1	163	16	8	460.45	49	10
11	28	9	6	3	1	75	10	1	164	6	8	83.92	49	2
11	28	9	6	3	1	75	10	1	164	6	8	308.22	49	7
11	28	9	6	3	1	75	10	1	164	6	8	557.29	49	12
11	28	9	6	3	1	75	10	1	165	6	6	278.11	49	6
11	28	9	6	3	1	75	10	1	165	6	6	507.29	49	11
11	28	9	6	3	1	75	10	1	166	16	7	284.14	49	6
11	28	9	6	3	1	75	10	1	166	16	7	509.51	49	11
11	28	9	6	3	1	75	10	1	166	16	7	757.53	49	16
11	28	9	6	3	1	75	10	1	167	6	4	0	-1	16
11	28	9	6	3	1	75	10	1	168	6	5	617.3	49	13
11	28	9	6	3	1	75	10	1	169	6	10	10.27	49	1
11	28	9	6	3	1	75	10	1	169	6	10	790.37	49	16
11	28	9	6	3	1	75	10	1	170	6	9	13.5	49	1
11	28	9	6	3	1	75	10	1	170	6	9	273.15	49	6
11	28	9	6	3	1	75	10	1	171	6	7	43.23	49	1
11	28	9	6	3	1	75	10	1	171	6	7	261.69	49	6
11	28	9	6	3	1	75	10	1	172	16	5	112.65	49	3
11	28	9	6	3	1	75	10	1	172	16	5	313.13	49	7
11	28	9	6	3	1	75	10	1	173	6	2	25.19	49	1
11	28	9	6	3	1	75	10	1	173	6	2	260.58	49	6
11	28	9	6	3	1	75	10	1	174	16	2	110.98	49	3
11	28	9	6	3	1	75	10	1	174	16	2	360.72	49	8
11	28	9	6	3	1	75	10	1	175	6	1	0	-1	16
11	28	9	6	3	1	75	10	1	176	6	8	14.71	49	1
11	28	9	6	3	1	75	10	1	176	6	8	262.04	49	6
11	28	9	6	3	1	75	10	1	176	6	8	613.3	49	13
11	28	9	6	3	1	75	10	1	177	6	3	8.06	49	1
11	28	9	6	3	1	75	10	1	177	6	3	671.51	49	14
11	28	9	6	3	1	75	10	1	178	6	5	7.98	49	1
11	28	9	6	3	1	75	10	1	178	6	5	209.14	49	5
11	28	9	6	3	1	75	10	1	178	6	5	666.97	49	14
11	28	9	6	3	1	75	10	1	179	6	4	8.13	49	1
11	28	9	6	3	1	75	10	1	179	6	4	638.91	49	13
11	28	9	6	3	1	75	10	1	180	6	2	8.4	49	1
11	28	9	6	3	1	75	10	1	180	6	2	209.57	49	5
11	28	9	6	3	1	75	10	1	181	6	10	160.22	49	4
11	28	9	6	3	1	75	10	1	181	6	10	410.77	49	9
11	28	9	6	3	1	75	10	1	181	6	10	793.07	49	16
11	28	9	6	3	1	75	10	1	182	6	9	13.26	49	1
11	28	9	6	3	1	75	10	1	182	6	9	260.45	49	6
11	28	9	6	3	1	75	10	1	182	6	9	715.33	49	15
11	28	9	6	3	1	75	10	1	183	6	6	12.95	49	1
11	28	9	6	3	1	75	10	1	183	6	6	263.05	49	6
11	28	9	6	3	1	75	10	1	183	6	6	760.11	49	16
11	28	9	6	3	1	75	10	1	184	16	9	11.51	49	1
11	28	9	6	3	1	75	10	1	184	16	9	260.53	49	6
11	28	9	6	3	1	75	10	1	185	16	1	510.57	49	11
11	28	9	6	3	1	75	10	1	185	16	1	762.29	49	16
11	28	9	6	3	1	75	10	1	186	6	8	9.29	49	1
11	28	9	6	3	1	75	10	1	186	6	8	258.6	49	6
11	28	9	6	3	1	75	10	1	187	6	7	0	-1	16
11	28	9	6	3	1	75	10	1	188	6	3	169.97	49	4
11	28	9	6	3	1	75	10	1	188	6	3	407.49	49	9
11	28	9	6	3	1	75	10	1	189	6	1	362.53	49	8
11	28	9	6	3	1	75	10	1	189	6	1	607.79	49	13
11	28	9	6	3	1	75	10	1	190	6	6	8.37	49	1
11	28	9	6	3	1	75	10	1	190	6	6	684.86	49	14
11	28	9	6	3	1	75	10	1	191	16	3	8.31	49	1
11	28	9	6	3	1	75	10	1	191	16	3	209.98	49	5
11	28	9	6	3	1	75	10	1	192	6	4	158.99	49	4
11	28	9	6	3	1	75	10	1	192	6	4	359.15	49	8
11	28	9	6	3	1	75	10	1	192	6	4	609.35	49	13
11	28	9	6	3	1	75	10	1	193	6	1	8.79	49	1
11	28	9	6	3	1	75	10	1	193	6	1	519.04	49	11
11	28	9	6	3	1	75	10	1	193	6	1	757.54	49	16
11	28	9	6	3	1	75	10	1	194	6	2	10.37	49	1
11	28	9	6	3	1	75	10	1	195	16	6	0	-1	16
11	28	9	6	3	1	75	10	1	196	6	5	40.56	49	1
11	28	9	6	3	1	75	10	1	196	6	5	260.83	49	6
11	28	9	6	3	1	75	10	1	196	6	5	462.72	49	10
11	28	9	6	3	1	75	10	1	197	6	9	519.47	49	11
11	28	9	6	3	1	75	10	1	197	6	9	762.87	49	16
11	28	9	6	3	1	75	10	1	198	16	8	9.92	49	1
11	28	9	6	3	1	75	10	1	199	16	10	0	-1	16
11	28	9	6	3	1	75	10	1	200	6	10	0	-1	16
11	28	9	6	3	1	75	10	1	201	6	7	207.99	49	5
11	28	9	6	3	1	75	10	1	201	6	7	409.35	49	9
11	28	9	6	3	1	75	10	1	201	6	7	609.66	49	13
11	28	9	6	3	1	75	10	1	202	6	8	211.85	49	5
11	28	9	6	3	1	75	10	1	202	6	8	457.36	49	10
11	28	9	6	3	1	75	10	1	202	6	8	707.2	49	15
11	28	9	6	3	1	75	10	1	203	16	2	8.33	49	1
11	28	9	6	3	1	75	10	1	203	16	2	211.73	49	5
11	28	9	6	3	1	75	10	1	203	16	2	414.72	49	9
11	28	9	6	3	1	75	10	1	203	16	2	660.04	49	14
11	28	9	6	3	1	75	10	1	204	6	3	0	-1	16
11	28	9	6	3	1	75	10	1	205	16	7	0	-1	16
11	28	9	6	3	1	75	10	1	206	6	7	214.57	49	5
11	28	9	6	3	1	75	10	1	206	6	7	458.66	49	10
11	28	9	6	3	1	75	10	1	206	6	7	660.23	49	14
11	28	9	6	3	1	75	10	1	207	6	1	427.8	49	9
11	28	9	6	3	1	75	10	1	207	6	1	659.92	49	14
11	28	9	6	3	1	75	10	1	208	6	5	364.34	49	8
11	28	9	6	3	1	75	10	1	208	6	5	612.05	49	13
11	28	9	6	3	1	75	10	1	209	16	1	463.61	49	10
11	28	9	6	3	1	75	10	1	209	16	1	710.38	49	15
11	28	9	6	3	1	75	10	1	210	6	10	10	49	1
11	28	9	6	3	1	75	10	1	210	6	10	258.59	49	6
11	28	9	6	3	1	75	10	1	210	6	10	508.84	49	11
11	28	9	6	3	1	75	10	1	211	6	4	178.99	49	4
11	28	9	6	3	1	75	10	1	211	6	4	409.76	49	9
11	28	9	6	3	1	75	10	1	212	16	4	108.69	49	3
11	28	9	6	3	1	75	10	1	212	16	4	357.63	49	8
11	28	9	6	3	1	75	10	1	212	16	4	727.14	49	15
11	28	9	6	3	1	75	10	1	213	6	2	8.04	49	1
11	28	9	6	3	1	75	10	1	213	6	2	259.94	49	6
11	28	9	6	3	1	75	10	1	213	6	2	757.52	49	16
11	28	9	6	3	1	75	10	1	214	6	9	8.35	49	1
11	28	9	6	3	1	75	10	1	214	6	9	257.03	49	6
11	28	9	6	3	1	75	10	1	215	16	5	38.29	49	1
11	28	9	6	3	1	75	10	1	215	16	5	258.49	49	6
11	28	9	6	3	1	75	10	1	215	16	5	757.53	49	16
11	28	9	6	3	1	75	10	1	216	6	3	10.66	49	1
11	28	9	6	3	1	75	10	1	216	6	3	211.47	49	5
11	28	9	6	3	1	75	10	1	216	6	3	710.64	49	15
11	28	9	6	3	1	75	10	1	217	6	6	10.8	49	1
11	28	9	6	3	1	75	10	1	217	6	6	260.19	49	6
11	28	9	6	3	1	75	10	1	217	6	6	634.99	49	13
11	28	9	6	3	1	75	10	1	218	6	8	8.67	49	1
11	28	9	6	3	1	75	10	1	218	6	8	210.45	49	5
11	28	9	6	3	1	75	10	1	218	6	8	688.95	49	14
11	28	9	6	3	1	75	10	1	219	6	6	13.37	49	1
11	28	9	6	3	1	75	10	1	219	6	6	261.09	49	6
11	28	9	6	3	1	75	10	1	220	6	4	11.44	49	1
11	28	9	6	3	1	75	10	1	220	6	4	218.41	49	5
11	28	9	6	3	1	75	10	1	221	16	9	13.11	49	1
11	28	9	6	3	1	75	10	1	221	16	9	260.36	49	6
11	28	9	6	3	1	75	10	1	222	6	9	113.71	49	3
11	28	9	6	3	1	75	10	1	222	6	9	359.25	49	8
11	28	9	6	3	1	75	10	1	223	6	10	9.98	49	1
11	28	9	6	3	1	75	10	1	223	6	10	210.88	49	5
11	28	9	6	3	1	75	10	1	224	6	1	107.45	49	3
11	28	9	6	3	1	75	10	1	224	6	1	309.38	49	7
11	28	9	6	3	1	75	10	1	224	6	1	509.64	49	11
11	28	9	6	3	1	75	10	1	224	6	1	784.25	49	16
11	28	9	6	3	1	75	10	1	225	16	3	8.61	49	1
11	28	9	6	3	1	75	10	1	225	16	3	213.67	49	5
11	28	9	6	3	1	75	10	1	226	6	2	557.37	49	12
11	28	9	6	3	1	75	10	1	227	6	7	8.43	49	1
11	28	9	6	3	1	75	10	1	227	6	7	718.71	49	15
11	28	9	6	3	1	75	10	1	228	6	5	8.1	49	1
11	28	9	6	3	1	75	10	1	228	6	5	209.81	49	5
11	28	9	6	3	1	75	10	1	228	6	5	628.96	49	13
11	28	9	6	3	1	75	10	1	229	6	8	8.86	49	1
11	28	9	6	3	1	75	10	1	229	6	8	259.22	49	6
11	28	9	6	3	1	75	10	1	229	6	8	715.19	49	15
11	28	9	6	3	1	75	10	1	230	6	3	8.28	49	1
11	28	9	6	3	1	75	10	1	230	6	3	208.95	49	5
11	28	9	6	3	1	75	10	1	230	6	3	772.17	49	16
11	28	9	6	3	1	75	10	1	231	6	6	11.11	49	1
11	28	9	6	3	1	75	10	1	231	6	6	212.12	49	5
11	28	9	6	3	1	75	10	1	231	6	6	461.77	49	10
11	28	9	6	3	1	75	10	1	232	16	6	10.46	49	1
11	28	9	6	3	1	75	10	1	232	16	6	260.15	49	6
11	28	9	6	3	1	75	10	1	233	16	7	260.55	49	6
11	28	9	6	3	1	75	10	1	233	16	7	511.92	49	11
11	28	9	6	3	1	75	10	1	233	16	7	761.91	49	16
11	28	9	6	3	1	75	10	1	234	6	5	11.51	49	1
11	28	9	6	3	1	75	10	1	234	6	5	462.57	49	10
11	28	9	6	3	1	75	10	1	234	6	5	712.91	49	15
11	28	9	6	3	1	75	10	1	235	6	7	9.46	49	1
11	28	9	6	3	1	75	10	1	235	6	7	409.23	49	9
11	28	9	6	3	1	75	10	1	235	6	7	611.48	49	13
11	28	9	6	3	1	75	10	1	236	16	8	323.24	49	7
11	28	9	6	3	1	75	10	1	236	16	8	560.71	49	12
11	28	9	6	3	1	75	10	1	237	6	1	529.47	49	11
11	28	9	6	3	1	75	10	1	237	6	1	759.61	49	16
11	28	9	6	3	1	75	10	1	238	6	2	8.2	49	1
11	28	9	6	3	1	75	10	1	238	6	2	566.97	49	12
11	28	9	6	3	1	75	10	1	239	6	8	8.05	49	1
11	28	9	6	3	1	75	10	1	239	6	8	666.54	49	14
11	28	9	6	3	1	75	10	1	240	6	4	8.02	49	1
11	28	9	6	3	1	75	10	1	240	6	4	210.25	49	5
11	28	9	6	3	1	75	10	1	240	6	4	694.27	49	14
11	28	9	6	3	1	75	10	1	241	6	9	8.66	49	1
11	28	9	6	3	1	75	10	1	241	6	9	259.99	49	6
11	28	9	6	3	1	75	10	1	242	6	10	207.76	49	5
11	28	9	6	3	1	75	10	1	242	6	10	407.94	49	9
11	28	9	6	3	1	75	10	1	243	6	3	12.95	49	1
11	28	9	6	3	1	75	10	1	243	6	3	263.6	49	6
11	28	9	6	3	1	75	10	1	243	6	3	729.58	49	15
11	28	9	6	3	1	75	10	1	244	16	5	12.66	49	1
11	28	9	6	3	1	75	10	1	244	16	5	260.46	49	6
11	28	9	6	3	1	75	10	1	245	6	7	610.18	49	13
11	28	9	6	3	1	75	10	1	246	6	10	10.94	49	1
11	28	9	6	3	1	75	10	1	246	6	10	659.81	49	14
11	28	9	6	3	1	75	10	1	247	6	4	9.69	49	1
11	28	9	6	3	1	75	10	1	247	6	4	210.86	49	5
11	28	9	6	3	1	75	10	1	247	6	4	608.83	49	13
11	28	9	6	3	1	75	10	1	248	6	2	11.52	49	1
11	28	9	6	3	1	75	10	1	248	6	2	258.21	49	6
11	28	9	6	3	1	75	10	1	248	6	2	636.26	49	13
11	28	9	6	3	1	75	10	1	249	6	5	8.55	49	1
11	28	9	6	3	1	75	10	1	249	6	5	209.9	49	5
11	28	9	6	3	1	75	10	1	249	6	5	410.33	49	9
11	28	9	6	3	1	75	10	1	249	6	5	659.1	49	14
11	28	9	6	3	1	75	10	1	250	16	2	11.21	49	1
11	28	9	6	3	1	75	10	1	250	16	2	211.47	49	5
11	28	9	6	3	1	75	10	1	250	16	2	411.79	49	9
11	28	9	6	3	1	75	10	1	250	16	2	737.15	49	15
11	28	9	6	3	1	75	10	1	251	16	1	11.47	49	1
11	28	9	6	3	1	75	10	1	251	16	1	265.14	49	6
11	28	9	6	3	1	75	10	1	251	16	1	511.01	49	11
11	28	9	6	3	1	75	10	1	252	6	1	659.9	49	14
11	28	9	6	3	1	75	10	1	253	16	4	13.22	49	1
11	28	9	6	3	1	75	10	1	254	6	9	612.62	49	13
11	28	9	6	3	1	75	10	1	255	6	6	10.46	49	1
11	28	9	6	3	1	75	10	1	255	6	6	211.93	49	5
11	28	9	6	3	1	75	10	1	255	6	6	668.7	49	14
11	28	9	6	3	1	75	10	1	256	6	3	11.36	49	1
11	28	9	6	3	1	75	10	1	256	6	3	260.87	49	6
11	28	9	6	3	1	75	10	1	257	6	8	111.52	49	3
11	28	9	6	3	1	75	10	1	257	6	8	358.93	49	8
11	28	9	6	3	1	75	10	1	258	6	6	258.78	49	6
11	28	9	6	3	1	75	10	1	258	6	6	460.15	49	10
11	28	9	6	3	1	75	10	1	259	6	2	242.39	49	5
11	28	9	6	3	1	75	10	1	259	6	2	457.54	49	10
11	28	9	6	3	1	75	10	1	259	6	2	707.34	49	15
11	28	9	6	3	1	75	10	1	260	6	7	172.71	49	4
11	28	9	6	3	1	75	10	1	260	6	7	407.28	49	9
11	28	9	6	3	1	75	10	1	260	6	7	610.19	49	13
11	28	9	6	3	1	75	10	1	261	16	9	180.89	49	4
11	28	9	6	3	1	75	10	1	261	16	9	409.48	49	9
11	28	9	6	3	1	75	10	1	261	16	9	609.83	49	13
11	28	9	6	3	1	75	10	1	262	6	8	42.78	49	1
11	28	9	6	3	1	75	10	1	262	6	8	257.54	49	6
11	28	9	6	3	1	75	10	1	262	6	8	509.63	49	11
11	28	9	6	3	1	75	10	1	263	6	5	133.14	49	3
11	28	9	6	3	1	75	10	1	263	6	5	358.89	49	8
11	28	9	6	3	1	75	10	1	263	6	5	688.66	49	14
11	28	9	6	3	1	75	10	1	264	6	9	8.09	49	1
11	28	9	6	3	1	75	10	1	264	6	9	260.58	49	6
11	28	9	6	3	1	75	10	1	264	6	9	660.62	49	14
11	28	9	6	3	1	75	10	1	265	16	10	8.41	49	1
11	28	9	6	3	1	75	10	1	265	16	10	210.67	49	5
11	28	9	6	3	1	75	10	1	265	16	10	460.08	49	10
11	28	9	6	3	1	75	10	1	266	6	1	660.23	49	14
11	28	9	6	3	1	75	10	1	267	6	4	11.79	49	1
11	28	9	6	3	1	75	10	1	267	6	4	260.34	49	6
11	28	9	6	3	1	75	10	1	267	6	4	777.87	49	16
11	28	9	6	3	1	75	10	1	268	6	10	10.63	49	1
11	28	9	6	3	1	75	10	1	268	6	10	260.59	49	6
11	28	9	6	3	1	75	10	1	268	6	10	460.91	49	10
11	28	9	6	3	1	75	10	1	269	16	3	0	-1	16
11	28	9	6	3	1	75	10	1	270	6	3	268.22	49	6
11	28	9	6	3	1	75	10	1	270	6	3	508.35	49	11
11	28	9	6	3	1	75	10	1	271	16	7	14.65	49	1
11	28	9	6	3	1	75	10	1	271	16	7	258.81	49	6
11	28	9	6	3	1	75	10	1	271	16	7	507.5	49	11
11	28	9	6	3	1	75	10	1	272	6	6	59.03	49	2
11	28	9	6	3	1	75	10	1	272	6	6	307.53	49	7
11	28	9	6	3	1	75	10	1	272	6	6	507.85	49	11
11	28	9	6	3	1	75	10	1	273	16	1	18.26	49	1
11	28	9	6	3	1	75	10	1	273	16	1	257.12	49	6
11	28	9	6	3	1	75	10	1	273	16	1	510.87	49	11
11	28	9	6	3	1	75	10	1	273	16	1	773.53	49	16
11	28	9	6	3	1	75	10	1	274	6	8	8.19	49	1
11	28	9	6	3	1	75	10	1	274	6	8	210	49	5
11	28	9	6	3	1	75	10	1	274	6	8	410.01	49	9
11	28	9	6	3	1	75	10	1	275	6	4	59.87	49	2
11	28	9	6	3	1	75	10	1	275	6	4	307.34	49	7
11	28	9	6	3	1	75	10	1	275	6	4	559.91	49	12
11	28	9	6	3	1	75	10	1	276	16	10	137.34	49	3
11	28	9	6	3	1	75	10	1	276	16	10	357.7	49	8
11	28	9	6	3	1	75	10	1	276	16	10	557.81	49	12
11	28	9	6	3	1	75	10	1	277	6	10	125.89	49	3
11	28	9	6	3	1	75	10	1	277	6	10	359.29	49	8
11	28	9	6	3	1	75	10	1	278	6	2	34.83	49	1
11	28	9	6	3	1	75	10	1	278	6	2	260.22	49	6
11	28	9	6	3	1	75	10	1	279	6	9	62.71	49	2
11	28	9	6	3	1	75	10	1	279	6	9	310.11	49	7
11	28	9	6	3	1	75	10	1	280	6	1	13.77	49	1
11	28	9	6	3	1	75	10	1	280	6	1	263.43	49	6
11	28	9	6	3	1	75	10	1	280	6	1	777.84	49	16
11	28	9	6	3	1	75	10	1	281	6	5	12.83	49	1
11	28	9	6	3	1	75	10	1	281	6	5	259.49	49	6
11	28	9	6	3	1	75	10	1	281	6	5	635.81	49	13
11	28	9	6	3	1	75	10	1	282	6	7	9.56	49	1
11	28	9	6	3	1	75	10	1	282	6	7	211.68	49	5
11	28	9	6	3	1	75	10	1	282	6	7	693.28	49	14
11	28	9	6	3	1	75	10	1	283	6	3	9.2	49	1
11	28	9	6	3	1	75	10	1	283	6	3	257.83	49	6
11	28	9	6	3	1	75	10	1	284	6	2	9.03	49	1
11	28	9	6	3	1	75	10	1	284	6	2	209.51	49	5
11	28	9	6	3	1	75	10	1	284	6	2	725.2	49	15
11	28	9	6	3	1	75	10	1	285	6	10	8	49	1
11	28	9	6	3	1	75	10	1	285	6	10	209.3	49	5
11	28	9	6	3	1	75	10	1	285	6	10	634.05	49	13
11	28	9	6	3	1	75	10	1	286	6	9	8.06	49	1
11	28	9	6	3	1	75	10	1	286	6	9	257.16	49	6
11	28	9	6	3	1	75	10	1	286	6	9	759.8	49	16
11	28	9	6	3	1	75	10	1	287	6	8	9.66	49	1
11	28	9	6	3	1	75	10	1	287	6	8	258.1	49	6
11	28	9	6	3	1	75	10	1	287	6	8	758.37	49	16
11	28	9	6	3	1	75	10	1	288	16	9	8.19	49	1
11	28	9	6	3	1	75	10	1	288	16	9	209.8	49	5
11	28	9	6	3	1	75	10	1	288	16	9	409.82	49	9
11	28	9	6	3	1	75	10	1	289	6	5	210.64	49	5
11	28	9	6	3	1	75	10	1	289	6	5	460.14	49	10
11	28	9	6	3	1	75	10	1	289	6	5	773.91	49	16
11	28	9	6	3	1	75	10	1	290	6	1	12.88	49	1
11	28	9	6	3	1	75	10	1	290	6	1	262.5	49	6
11	28	9	6	3	1	75	10	1	291	6	7	61.85	49	2
11	28	9	6	3	1	75	10	1	291	6	7	312.32	49	7
11	28	9	6	3	1	75	10	1	291	6	7	512.41	49	11
11	28	9	6	3	1	75	10	1	291	6	7	761.46	49	16
11	28	9	6	3	1	75	10	1	292	16	2	712.1	49	15
11	28	9	6	3	1	75	10	1	293	6	3	10.29	49	1
11	28	9	6	3	1	75	10	1	293	6	3	261.09	49	6
11	28	9	6	3	1	75	10	1	294	6	6	319.46	49	7
11	28	9	6	3	1	75	10	1	294	6	6	560.08	49	12
11	28	9	6	3	1	75	10	1	295	6	4	10.74	49	1
11	28	9	6	3	1	75	10	1	295	6	4	257.36	49	6
11	28	9	6	3	1	75	10	1	295	6	4	460.28	49	10
11	28	9	6	3	1	75	10	1	295	6	4	707.5	49	15
11	28	9	6	3	1	75	10	1	296	16	5	45.32	49	1
11	28	9	6	3	1	75	10	1	296	16	5	260.14	49	6
11	28	9	6	3	1	75	10	1	296	16	5	460.26	49	10
11	28	9	6	3	1	75	10	1	297	16	4	189.87	49	4
11	28	9	6	3	1	75	10	1	297	16	4	407.31	49	9
11	28	9	6	3	1	75	10	1	298	6	2	0	-1	16
11	28	9	6	3	1	75	10	1	299	6	9	118.9	49	3
11	28	9	6	3	1	75	10	1	299	6	9	357.29	49	8
11	28	9	6	3	1	75	10	1	299	6	9	557.45	49	12
11	28	9	6	3	1	75	10	1	300	6	10	713.79	49	15
11	28	9	6	3	1	75	10	1	301	16	6	10.65	49	1
11	28	9	6	3	1	75	10	1	301	16	6	259.48	49	6
11	28	9	6	3	1	75	10	1	301	16	6	511.11	49	11
11	28	9	6	3	1	75	10	1	301	16	6	760.96	49	16
11	28	9	6	3	1	75	10	1	302	6	1	11.35	49	1
11	28	9	6	3	1	75	10	1	302	6	1	212.18	49	5
11	28	9	6	3	1	75	10	1	302	6	1	412.26	49	9
11	28	9	6	3	1	75	10	1	302	6	1	615.45	49	13
11	28	9	6	3	1	75	10	1	303	6	8	12.15	49	1
11	28	9	6	3	1	75	10	1	303	6	8	212.93	49	5
11	28	9	6	3	1	75	10	1	303	6	8	576.94	49	12
11	28	9	6	3	1	75	10	1	304	16	3	11.26	49	1
11	28	9	6	3	1	75	10	1	304	16	3	212.26	49	5
11	28	9	6	3	1	75	10	1	304	16	3	412.65	49	9
11	28	9	6	3	1	75	10	1	305	6	6	10.43	49	1
11	28	9	6	3	1	75	10	1	305	6	6	261.2	49	6
11	28	9	6	3	1	75	10	1	305	6	6	511.03	49	11
11	28	9	6	3	1	75	10	1	306	16	8	164.7	49	4
11	28	9	6	3	1	75	10	1	306	16	8	408.62	49	9
11	28	9	6	3	1	75	10	1	306	16	8	609.52	49	13
11	28	9	6	3	1	75	10	1	307	6	7	619.98	49	13
11	28	9	6	3	1	75	10	1	308	6	3	8.83	49	1
11	28	9	6	3	1	75	10	1	308	6	3	669.43	49	14
11	28	9	6	3	1	75	10	1	309	16	7	8.58	49	1
11	28	9	6	3	1	75	10	1	310	16	1	774.17	49	16
11	28	9	6	3	1	75	10	1	311	6	5	8.33	49	1
11	28	9	6	3	1	75	10	1	311	6	5	209.39	49	5
11	28	9	6	3	1	75	10	1	311	6	5	409.5	49	9
11	28	9	6	3	1	75	10	1	312	6	4	209.22	49	5
11	28	9	6	3	1	75	10	1	312	6	4	459.17	49	10
11	28	9	6	3	1	75	10	1	313	6	7	81.17	49	2
11	28	9	6	3	1	75	10	1	313	6	7	307.8	49	7
11	28	9	6	3	1	75	10	1	314	16	9	168.26	49	4
11	28	9	6	3	1	75	10	1	314	16	9	410	49	9
11	28	9	6	3	1	75	10	1	314	16	9	611.27	49	13
11	28	9	6	3	1	75	10	1	315	6	9	266.41	49	6
11	28	9	6	3	1	75	10	1	315	6	9	510.53	49	11
11	28	9	6	3	1	75	10	1	316	16	4	535.47	49	11
11	28	9	6	3	1	75	10	1	316	16	4	760.97	49	16
11	28	9	6	3	1	75	10	1	317	6	2	10.16	49	1
11	28	9	6	3	1	75	10	1	317	6	2	609.13	49	13
11	28	9	6	3	1	75	10	1	318	6	4	8.87	49	1
11	28	9	6	3	1	75	10	1	318	6	4	377.43	49	8
11	28	9	6	3	1	75	10	1	318	6	4	608.83	49	13
11	28	9	6	3	1	75	10	1	319	16	5	8.13	49	1
11	28	9	6	3	1	75	10	1	319	16	5	360.14	49	8
11	28	9	6	3	1	75	10	1	319	16	5	610.07	49	13
11	28	9	6	3	1	75	10	1	320	6	5	8.17	49	1
11	28	9	6	3	1	75	10	1	320	6	5	441.77	49	9
11	28	9	6	3	1	75	10	1	320	6	5	659.63	49	14
11	28	9	6	3	1	75	10	1	321	6	1	7.85	49	1
11	28	9	6	3	1	75	10	1	321	6	1	575.16	49	12
11	28	9	6	3	1	75	10	1	322	6	10	8.09	49	1
11	28	9	6	3	1	75	10	1	322	6	10	257.87	49	6
11	28	9	6	3	1	75	10	1	322	6	10	508	49	11
11	28	9	6	3	1	75	10	1	322	6	10	708.23	49	15
11	28	9	6	3	1	75	10	1	323	16	10	38.04	49	1
11	28	9	6	3	1	75	10	1	323	16	10	260.09	49	6
11	28	9	6	3	1	75	10	1	323	16	10	795.09	49	16
11	28	9	6	3	1	75	10	1	324	16	2	9.14	49	1
11	28	9	6	3	1	75	10	1	324	16	2	259.61	49	6
11	28	9	6	3	1	75	10	1	325	6	6	518.76	49	11
11	28	9	6	3	1	75	10	1	325	6	6	720.96	49	15
11	28	9	6	3	1	75	10	1	326	6	3	17.6	49	1
11	28	9	6	3	1	75	10	1	326	6	3	479.38	49	10
11	28	9	6	3	1	75	10	1	326	6	3	713.68	49	15
11	28	9	6	3	1	75	10	1	327	6	8	576.65	49	12
11	28	9	6	3	1	75	10	1	328	6	5	8.77	49	1
11	28	9	6	3	1	75	10	1	328	6	5	659.1	49	14
11	28	9	6	3	1	75	10	1	329	6	10	7.67	49	1
11	28	9	6	3	1	75	10	1	329	6	10	710.63	49	15
11	28	9	6	3	1	75	10	1	330	6	4	10.28	49	1
11	28	9	6	3	1	75	10	1	330	6	4	257.55	49	6
11	28	9	6	3	1	75	10	1	330	6	4	778.16	49	16
11	28	9	6	3	1	75	10	1	331	6	9	8.19	49	1
11	28	9	6	3	1	75	10	1	331	6	9	210.25	49	5
11	28	9	6	3	1	75	10	1	331	6	9	410.25	49	9
11	28	9	6	3	1	75	10	1	332	6	2	78.84	49	2
11	28	9	6	3	1	75	10	1	332	6	2	310.34	49	7
11	28	9	6	3	1	75	10	1	332	6	2	557.64	49	12
11	28	9	6	3	1	75	10	1	333	6	8	578.28	49	12
11	28	9	6	3	1	75	10	1	334	6	7	8.86	49	1
11	28	9	6	3	1	75	10	1	334	6	7	211.39	49	5
11	28	9	6	3	1	75	10	1	335	6	3	470.58	49	10
11	28	9	6	3	1	75	10	1	335	6	3	710.71	49	15
11	28	9	6	3	1	75	10	1	336	6	6	11.29	49	1
11	28	9	6	3	1	75	10	1	336	6	6	766.48	49	16
11	28	9	6	3	1	75	10	1	337	6	1	10.73	49	1
11	28	9	6	3	1	75	10	1	337	6	1	212.06	49	5
11	28	9	6	3	1	75	10	1	337	6	1	459.94	49	10
11	28	9	6	3	1	75	10	1	338	6	7	123.13	49	3
11	28	9	6	3	1	75	10	1	338	6	7	359.11	49	8
11	28	9	6	3	1	75	10	1	338	6	7	561.36	49	12
11	28	9	6	3	1	75	10	1	339	6	9	167.75	49	4
11	28	9	6	3	1	75	10	1	339	6	9	408.63	49	9
11	28	9	6	3	1	75	10	1	340	6	4	80.16	49	2
11	28	9	6	3	1	75	10	1	340	6	4	307.68	49	7
11	28	9	6	3	1	75	10	1	340	6	4	712.85	49	15
11	28	9	6	3	1	75	10	1	341	6	10	8.3	49	1
11	28	9	6	3	1	75	10	1	341	6	10	210.08	49	5
11	28	9	6	3	1	75	10	1	341	6	10	610.82	49	13
11	28	9	6	3	1	75	10	1	342	6	5	8.16	49	1
11	28	9	6	3	1	75	10	1	342	6	5	663.68	49	14
11	28	9	6	3	1	75	10	1	343	16	6	8.18	49	1
11	28	9	6	3	1	75	10	1	343	16	6	619.09	49	13
11	28	9	6	3	1	75	10	1	344	16	3	7.6	49	1
11	28	9	6	3	1	75	10	1	344	16	3	257.36	49	6
11	28	9	6	3	1	75	10	1	345	16	8	0	-1	16
11	28	9	6	3	1	75	10	1	346	6	2	0	-1	16
11	28	9	6	3	1	75	10	1	347	16	2	478.59	49	10
11	28	9	6	3	1	75	10	1	347	16	2	711.14	49	15
11	28	9	6	3	1	75	10	1	348	6	1	10.81	49	1
11	28	9	6	3	1	75	10	1	348	6	1	520.49	49	11
11	28	9	6	3	1	75	10	1	348	6	1	760.21	49	16
11	28	9	6	3	1	75	10	1	349	6	3	12.11	49	1
11	28	9	6	3	1	75	10	1	349	6	3	360.8	49	8
11	28	9	6	3	1	75	10	1	349	6	3	562.03	49	12
11	28	9	6	3	1	75	10	1	350	6	6	10.1	49	1
11	28	9	6	3	1	75	10	1	350	6	6	211.11	49	5
11	28	9	6	3	1	75	10	1	350	6	6	458.93	49	10
11	28	9	6	3	1	75	10	1	350	6	6	660.47	49	14
11	28	9	6	3	1	75	10	1	351	6	8	0	-1	16
11	28	9	6	3	1	75	10	1	352	6	2	0	-1	16
11	28	9	6	3	1	75	10	1	353	6	9	41.74	49	1
11	28	9	6	3	1	75	10	1	353	6	9	260.54	49	6
11	28	9	6	3	1	75	10	1	353	6	9	624.3	49	13
11	28	9	6	3	1	75	10	1	354	6	10	8.55	49	1
11	28	9	6	3	1	75	10	1	354	6	10	209.61	49	5
11	28	9	6	3	1	75	10	1	354	6	10	611.05	49	13
11	28	9	6	3	1	75	10	1	355	6	7	7.95	49	1
11	28	9	6	3	1	75	10	1	355	6	7	209.52	49	5
11	28	9	6	3	1	75	10	1	355	6	7	709.39	49	15
11	28	9	6	3	1	75	10	1	356	16	9	8.19	49	1
11	28	9	6	3	1	75	10	1	356	16	9	208.91	49	5
11	28	9	6	3	1	75	10	1	357	6	1	357.77	49	8
11	28	9	6	3	1	75	10	1	357	6	1	607.37	49	13
11	28	9	6	3	1	75	10	1	358	6	6	8.29	49	1
11	28	9	6	3	1	75	10	1	358	6	6	468.43	49	10
11	28	9	6	3	1	75	10	1	358	6	6	709.58	49	15
11	28	9	6	3	1	75	10	1	359	6	5	10.67	49	1
11	28	9	6	3	1	75	10	1	359	6	5	464.07	49	10
11	28	9	6	3	1	75	10	1	359	6	5	710.36	49	15
11	28	9	6	3	1	75	10	1	360	6	8	60.18	49	2
11	28	9	6	3	1	75	10	1	360	6	8	513.03	49	11
11	28	9	6	3	1	75	10	1	360	6	8	762.76	49	16
11	28	9	6	3	1	75	10	1	361	6	3	11.13	49	1
11	28	9	6	3	1	75	10	1	361	6	3	612.73	49	13
11	28	9	6	3	1	75	10	1	362	6	4	10.78	49	1
11	28	9	6	3	1	75	10	1	362	6	4	212	49	5
11	28	9	6	3	1	75	10	1	362	6	4	610.13	49	13
11	28	9	6	3	1	75	10	1	363	6	5	9.15	49	1
11	28	9	6	3	1	75	10	1	363	6	5	579.57	49	12
11	28	9	6	3	1	75	10	1	364	6	2	8.8	49	1
11	28	9	6	3	1	75	10	1	364	6	2	209.98	49	5
11	28	9	6	3	1	75	10	1	364	6	2	661.48	49	14
11	28	9	6	3	1	75	10	1	365	16	10	57.76	49	2
11	28	9	6	3	1	75	10	1	365	16	10	259.11	49	6
11	28	9	6	3	1	75	10	1	366	6	10	377.99	49	8
11	28	9	6	3	1	75	10	1	366	6	10	607.68	49	13
11	28	9	6	3	1	75	10	1	367	6	9	8.06	49	1
11	28	9	6	3	1	75	10	1	367	6	9	560.2	49	12
11	28	9	6	3	1	75	10	1	368	6	4	8.32	49	1
11	28	9	6	3	1	75	10	1	368	6	4	543.21	49	11
11	28	9	6	3	1	75	10	1	368	6	4	759.9	49	16
11	28	9	6	3	1	75	10	1	369	6	3	8.02	49	1
11	28	9	6	3	1	75	10	1	369	6	3	557.69	49	12
11	28	9	6	3	1	75	10	1	369	6	3	757.83	49	16
11	28	9	6	3	1	75	10	1	370	6	8	59.18	49	2
11	28	9	6	3	1	75	10	1	370	6	8	616.13	49	13
11	28	9	6	3	1	75	10	1	371	6	7	10.28	49	1
11	28	9	6	3	1	75	10	1	371	6	7	259.78	49	6
11	28	9	6	3	1	75	10	1	372	6	6	14.07	49	1
11	28	9	6	3	1	75	10	1	372	6	6	262.09	49	6
11	28	9	6	3	1	75	10	1	373	6	1	24.46	49	1
11	28	9	6	3	1	75	10	1	373	6	1	261.76	49	6
11	28	9	6	3	1	75	10	1	373	6	1	461.87	49	10
11	28	9	6	3	1	75	10	1	373	6	1	763.32	49	16
11	28	9	6	3	1	75	10	1	374	6	2	13.5	49	1
11	28	9	6	3	1	75	10	1	374	6	2	262.54	49	6
11	28	9	6	3	1	75	10	1	374	6	2	711.56	49	15
11	28	9	6	3	1	75	10	1	375	6	10	41.08	49	1
11	28	9	6	3	1	75	10	1	375	6	10	261.85	49	6
11	28	9	6	3	1	75	10	1	375	6	10	724.28	49	15
11	28	9	6	3	1	75	10	1	376	6	9	9.38	49	1
11	28	9	6	3	1	75	10	1	376	6	9	210.91	49	5
11	28	9	6	3	1	75	10	1	376	6	9	713.02	49	15
11	28	9	6	3	1	75	10	1	377	6	7	8.71	49	1
11	28	9	6	3	1	75	10	1	377	6	7	209.59	49	5
11	28	9	6	3	1	75	10	1	377	6	7	784.85	49	16
11	28	9	6	3	1	75	10	1	378	16	7	8.39	49	1
11	28	9	6	3	1	75	10	1	378	16	7	209.47	49	5
11	28	9	6	3	1	75	10	1	378	16	7	768.81	49	16
11	28	9	6	3	1	75	10	1	379	16	3	7.7	49	1
11	28	9	6	3	1	75	10	1	379	16	3	257.35	49	6
11	28	9	6	3	1	75	10	1	380	16	5	0	-1	16
11	28	9	6	3	1	75	10	1	381	6	5	688.79	49	14
11	28	9	6	3	1	75	10	1	382	16	6	8.45	49	1
11	28	9	6	3	1	75	10	1	382	16	6	259.87	49	6
11	28	9	6	3	1	75	10	1	382	16	6	773.31	49	16
11	28	9	6	3	1	75	10	1	383	6	8	13.34	49	1
11	28	9	6	3	1	75	10	1	383	6	8	260.47	49	6
11	28	9	6	3	1	75	10	1	383	6	8	510.65	49	11
11	28	9	6	3	1	75	10	1	384	6	1	173.94	49	4
11	28	9	6	3	1	75	10	1	384	6	1	409.75	49	9
11	28	9	6	3	1	75	10	1	385	6	6	222.89	49	5
11	28	9	6	3	1	75	10	1	385	6	6	459.94	49	10
11	28	9	6	3	1	75	10	1	385	6	6	660.69	49	14
11	28	9	6	3	1	75	10	1	386	6	3	12.4	49	1
11	28	9	6	3	1	75	10	1	387	16	8	10.39	49	1
11	28	9	6	3	1	75	10	1	387	16	8	259.69	49	6
11	28	9	6	3	1	75	10	1	388	6	4	108.61	49	3
11	28	9	6	3	1	75	10	1	388	6	4	310.24	49	7
11	28	9	6	3	1	75	10	1	388	6	4	510.29	49	11
11	28	9	6	3	1	75	10	1	388	6	4	742.87	49	15
11	28	9	6	3	1	75	10	1	389	6	7	8.06	49	1
11	28	9	6	3	1	75	10	1	389	6	7	257.33	49	6
11	28	9	6	3	1	75	10	1	390	6	1	26	49	1
11	28	9	6	3	1	75	10	1	390	6	1	260.16	49	6
11	28	9	6	3	1	75	10	1	390	6	1	508.66	49	11
11	28	9	6	3	1	75	10	1	390	6	1	727.56	49	15
11	28	9	6	3	1	75	10	1	391	6	2	8.18	49	1
11	28	9	6	3	1	75	10	1	391	6	2	209.77	49	5
11	28	9	6	3	1	75	10	1	391	6	2	409.96	49	9
11	28	9	6	3	1	75	10	1	391	6	2	610.06	49	13
11	28	9	6	3	1	75	10	1	392	6	5	57.39	49	2
11	28	9	6	3	1	75	10	1	392	6	5	259.49	49	6
11	28	9	6	3	1	75	10	1	392	6	5	507.07	49	11
11	28	9	6	3	1	75	10	1	393	16	1	220.47	49	5
11	28	9	6	3	1	75	10	1	393	16	1	459.21	49	10
11	28	9	6	3	1	75	10	1	393	16	1	659.25	49	14
11	28	9	6	3	1	75	10	1	394	6	10	8.54	49	1
11	28	9	6	3	1	75	10	1	394	6	10	629.13	49	13
11	28	9	6	3	1	75	10	1	395	16	4	19.68	49	1
11	28	9	6	3	1	75	10	1	395	16	4	260.76	49	6
11	28	9	6	3	1	75	10	1	396	6	4	160.81	49	4
11	28	9	6	3	1	75	10	1	396	6	4	410.06	49	9
11	28	9	6	3	1	75	10	1	396	6	4	610.23	49	13
11	28	9	6	3	1	75	10	1	397	6	9	131.81	49	3
11	28	9	6	3	1	75	10	1	397	6	9	360.08	49	8
11	28	9	6	3	1	75	10	1	397	6	9	609.72	49	13
11	28	9	6	3	1	75	10	1	398	6	6	177.3	49	4
11	28	9	6	3	1	75	10	1	398	6	6	411.45	49	9
11	28	9	6	3	1	75	10	1	398	6	6	613.22	49	13
11	28	9	6	3	1	75	10	1	399	6	3	0	-1	16
11	28	9	6	3	1	75	10	1	400	6	8	166.59	49	4
11	28	9	6	3	1	75	10	1	400	6	8	368.47	49	8
11	28	9	6	3	1	75	10	1	400	6	8	615.44	49	13
11	28	9	6	3	1	75	10	1	401	16	5	126.23	49	3
11	28	9	6	3	1	75	10	1	401	16	5	357.95	49	8
11	28	9	6	3	1	75	10	1	401	16	5	558.47	49	12
11	28	9	6	3	1	75	10	1	402	6	6	220.33	49	5
11	28	9	6	3	1	75	10	1	402	6	6	458.51	49	10
11	28	9	6	3	1	75	10	1	402	6	6	659.8	49	14
11	28	9	6	3	1	75	10	1	403	16	9	8.25	49	1
11	28	9	6	3	1	75	10	1	403	16	9	482.86	49	10
11	28	9	6	3	1	75	10	1	403	16	9	708.93	49	15
11	28	9	6	3	1	75	10	1	404	6	10	8.41	49	1
11	28	9	6	3	1	75	10	1	404	6	10	210.21	49	5
11	28	9	6	3	1	75	10	1	404	6	10	668.43	49	14
11	28	9	6	3	1	75	10	1	405	6	9	9.68	49	1
11	28	9	6	3	1	75	10	1	405	6	9	257.24	49	6
11	28	9	6	3	1	75	10	1	405	6	9	661.95	49	14
11	28	9	6	3	1	75	10	1	406	16	2	8.13	49	1
11	28	9	6	3	1	75	10	1	406	16	2	259.63	49	6
11	28	9	6	3	1	75	10	1	406	16	2	507.88	49	11
11	28	9	6	3	1	75	10	1	407	16	10	8.64	49	1
11	28	9	6	3	1	75	10	1	407	16	10	257.43	49	6
11	28	9	6	3	1	75	10	1	408	6	5	115.62	49	3
11	28	9	6	3	1	75	10	1	408	6	5	358.02	49	8
11	28	9	6	3	1	75	10	1	409	16	4	110.17	49	3
11	28	9	6	3	1	75	10	1	409	16	4	310.48	49	7
11	28	9	6	3	1	75	10	1	410	16	6	116.96	49	3
11	28	9	6	3	1	75	10	1	410	16	6	361.24	49	8
11	28	9	6	3	1	75	10	1	411	6	7	310.84	49	7
11	28	9	6	3	1	75	10	1	411	6	7	561.5	49	12
11	28	9	6	3	1	75	10	1	412	16	7	260.49	49	6
11	28	9	6	3	1	75	10	1	412	16	7	508.95	49	11
11	28	9	6	3	1	75	10	1	413	6	4	358.39	49	8
11	28	9	6	3	1	75	10	1	413	6	4	558.68	49	12
11	28	9	6	3	1	75	10	1	414	16	8	60.92	49	2
11	28	9	6	3	1	75	10	1	414	16	8	261.92	49	6
11	28	9	6	3	1	75	10	1	414	16	8	558.02	49	12
11	28	9	6	3	1	75	10	1	415	6	2	166.88	49	4
11	28	9	6	3	1	75	10	1	415	6	2	407.58	49	9
11	28	9	6	3	1	75	10	1	415	6	2	607.71	49	13
11	28	9	6	3	1	75	10	1	416	6	1	8.43	49	1
11	28	9	6	3	1	75	10	1	416	6	1	259.34	49	6
11	28	9	6	3	1	75	10	1	416	6	1	509.33	49	11
11	28	9	6	3	1	75	10	1	417	6	8	157.38	49	4
11	28	9	6	3	1	75	10	1	417	6	8	407.31	49	9
11	28	9	6	3	1	75	10	1	418	6	3	109.62	49	3
11	28	9	6	3	1	75	10	1	418	6	3	359.18	49	8
11	28	9	6	3	1	75	10	1	418	6	3	559.85	49	12
11	28	9	6	3	1	75	10	1	419	6	2	159.98	49	4
11	28	9	6	3	1	75	10	1	419	6	2	410.19	49	9
11	28	9	6	3	1	75	10	1	419	6	2	610.42	49	13
11	28	9	6	3	1	75	10	1	420	6	10	108.2	49	3
11	28	9	6	3	1	75	10	1	420	6	10	309.76	49	7
11	28	9	6	3	1	75	10	1	420	6	10	716.97	49	15
11	28	9	6	3	1	75	10	1	421	16	3	13.2	49	1
11	28	9	6	3	1	75	10	1	421	16	3	260.27	49	6
11	28	9	6	3	1	75	10	1	422	6	9	614.31	49	13
11	28	9	6	3	1	75	10	1	423	16	1	10.81	49	1
11	28	9	6	3	1	75	10	1	423	16	1	612.42	49	13
11	28	9	6	3	1	75	10	1	424	6	7	10.84	49	1
11	28	9	6	3	1	75	10	1	424	6	7	621.55	49	13
11	28	9	6	3	1	75	10	1	425	6	6	10.04	49	1
11	28	9	6	3	1	75	10	1	425	6	6	258.42	49	6
11	28	9	6	3	1	75	10	1	426	16	6	0	-1	16
11	28	9	6	3	1	75	10	1	427	6	5	757.41	49	16
11	28	9	6	3	1	75	10	1	428	16	7	8.39	49	1
11	28	9	6	3	1	75	10	1	428	16	7	210.03	49	5
11	28	9	6	3	1	75	10	1	428	16	7	739.66	49	15
11	28	9	6	3	1	75	10	1	429	6	8	8.01	49	1
11	28	9	6	3	1	75	10	1	429	6	8	260.18	49	6
11	28	9	6	3	1	75	10	1	430	6	1	8.37	49	1
11	28	9	6	3	1	75	10	1	430	6	1	208.92	49	5
11	28	9	6	3	1	75	10	1	430	6	1	778.47	49	16
11	28	9	6	3	1	75	10	1	431	16	1	8.38	49	1
11	28	9	6	3	1	75	10	1	431	16	1	257.63	49	6
11	28	9	6	3	1	75	10	1	432	6	3	24.7	49	1
11	28	9	6	3	1	75	10	1	432	6	3	261.45	49	6
11	28	9	6	3	1	75	10	1	432	6	3	793.23	49	16
11	28	9	6	3	1	75	10	1	433	6	4	11.4	49	1
11	28	9	6	3	1	75	10	1	433	6	4	260.67	49	6
11	28	9	6	3	1	75	10	1	434	6	6	24.85	49	1
11	28	9	6	3	1	75	10	1	434	6	6	260.63	49	6
11	28	9	6	3	1	75	10	1	434	6	6	777.39	49	16
11	28	9	6	3	1	75	10	1	435	6	1	13.25	49	1
11	28	9	6	3	1	75	10	1	435	6	1	262.58	49	6
11	28	9	6	3	1	75	10	1	436	6	4	132.15	49	3
11	28	9	6	3	1	75	10	1	436	6	4	362.55	49	8
11	28	9	6	3	1	75	10	1	436	6	4	612.31	49	13
11	28	9	6	3	1	75	10	1	437	6	10	0	-1	16
11	28	9	6	3	1	75	10	1	438	6	5	58.55	49	2
11	28	9	6	3	1	75	10	1	438	6	5	260.78	49	6
11	28	9	6	3	1	75	10	1	438	6	5	672.23	49	14
11	28	9	6	3	1	75	10	1	439	16	10	8.16	49	1
11	28	9	6	3	1	75	10	1	440	6	7	309.05	49	7
11	28	9	6	3	1	75	10	1	440	6	7	559.34	49	12
11	28	9	6	3	1	75	10	1	441	6	2	92.88	49	2
11	28	9	6	3	1	75	10	1	441	6	2	307.32	49	7
11	28	9	6	3	1	75	10	1	441	6	2	523.32	49	11
11	28	9	6	3	1	75	10	1	441	6	2	757.04	49	16
11	28	9	6	3	1	75	10	1	442	6	9	541.14	49	11
11	28	9	6	3	1	75	10	1	442	6	9	760.52	49	16
11	28	9	6	3	1	75	10	1	443	6	8	257.29	49	6
11	28	9	6	3	1	75	10	1	443	6	8	459.82	49	10
11	28	9	6	3	1	75	10	1	444	6	3	229.17	49	5
11	28	9	6	3	1	75	10	1	444	6	3	459.48	49	10
11	28	9	6	3	1	75	10	1	445	6	5	266.94	49	6
11	28	9	6	3	1	75	10	1	445	6	5	510.18	49	11
11	28	9	6	3	1	75	10	1	446	6	4	232.57	49	5
11	28	9	6	3	1	75	10	1	446	6	4	461.59	49	10
11	28	9	6	3	1	75	10	1	447	6	9	210.39	49	5
11	28	9	6	3	1	75	10	1	447	6	9	410.45	49	9
11	28	9	6	3	1	75	10	1	448	6	2	172.26	49	4
11	28	9	6	3	1	75	10	1	448	6	2	410.89	49	9
11	28	9	6	3	1	75	10	1	448	6	2	612.66	49	13
11	28	9	6	3	1	75	10	1	449	6	10	262.51	49	6
11	28	9	6	3	1	75	10	1	449	6	10	510.34	49	11
11	28	9	6	3	1	75	10	1	449	6	10	711.09	49	15
11	28	9	6	3	1	75	10	1	450	6	8	271.69	49	6
11	28	9	6	3	1	75	10	1	450	6	8	508.93	49	11
