SubjectNum	Age	Gender	PressedTask	Block Type	Block Repeat Num	Response Rate	Onset	Block	Trial	ImgType	ImgNum	RT	PressedC	FrameC
21	21	16	6	1	1	75	10	1	1	6	5	0	-1	16
21	21	16	6	1	1	75	10	1	2	6	10	337.59	49	7
21	21	16	6	1	1	75	10	1	3	6	4	534.44	49	11
21	21	16	6	1	1	75	10	1	4	6	9	0	-1	16
21	21	16	6	1	1	75	10	1	5	16	7	23.62	49	1
21	21	16	6	1	1	75	10	1	6	6	2	0	-1	16
21	21	16	6	1	1	75	10	1	7	6	3	11.16	49	1
21	21	16	6	1	1	75	10	1	8	16	9	31.56	49	1
21	21	16	6	1	1	75	10	1	9	6	8	0	-1	16
21	21	16	6	1	1	75	10	1	10	16	2	0	-1	16
21	21	16	6	1	1	75	10	1	11	6	7	0	-1	16
21	21	16	6	1	1	75	10	1	12	6	6	174.78	49	4
21	21	16	6	1	1	75	10	1	13	6	1	207.11	49	5
21	21	16	6	1	1	75	10	1	14	16	5	131.47	49	3
21	21	16	6	1	1	75	10	1	15	6	5	721.25	49	15
21	21	16	6	1	1	75	10	1	16	6	2	10.58	49	1
21	21	16	6	1	1	75	10	1	16	6	2	763.48	49	16
21	21	16	6	1	1	75	10	1	17	6	4	10.39	49	1
21	21	16	6	1	1	75	10	1	18	6	9	60.5	49	2
21	21	16	6	1	1	75	10	1	19	6	10	177.17	49	4
21	21	16	6	1	1	75	10	1	20	16	1	331.16	49	7
21	21	16	6	1	1	75	10	1	21	6	3	0	-1	16
21	21	16	6	1	1	75	10	1	22	16	10	109.76	49	3
21	21	16	6	1	1	75	10	1	23	6	7	0	-1	16
21	21	16	6	1	1	75	10	1	24	16	4	280.49	49	6
21	21	16	6	1	1	75	10	1	25	6	8	0	-1	16
21	21	16	6	1	1	75	10	1	26	16	3	19.24	49	1
21	21	16	6	1	1	75	10	1	27	6	6	0	-1	16
21	21	16	6	1	1	75	10	1	28	6	1	10.82	49	1
21	21	16	6	1	1	75	10	1	29	6	6	210.27	49	5
21	21	16	6	1	1	75	10	1	30	6	1	91.77	49	2
21	21	16	6	1	1	75	10	1	31	16	6	288.01	49	6
21	21	16	6	1	1	75	10	1	32	6	9	789.4	49	16
21	21	16	6	1	1	75	10	1	33	6	8	8.06	49	1
21	21	16	6	1	1	75	10	1	34	6	10	62.29	49	2
21	21	16	6	1	1	75	10	1	35	16	8	456.95	49	10
21	21	16	6	1	1	75	10	1	36	6	7	0	-1	16
21	21	16	6	1	1	75	10	1	37	6	4	207.07	49	5
21	21	16	6	1	1	75	10	1	38	6	2	8.86	49	1
21	21	16	6	1	1	75	10	1	39	6	5	64.06	49	2
21	21	16	6	1	1	75	10	1	39	6	5	770.35	49	16
21	21	16	6	1	1	75	10	1	40	16	7	10.65	49	1
21	21	16	6	1	1	75	10	1	41	16	4	0	-1	16
21	21	16	6	1	1	75	10	1	42	6	3	771.35	49	16
21	21	16	6	1	1	75	10	1	43	6	7	11.35	49	1
21	21	16	6	1	1	75	10	1	44	6	5	161.89	49	4
21	21	16	6	1	1	75	10	1	45	6	2	9.86	49	1
21	21	16	6	1	1	75	10	1	46	6	1	264.07	49	6
21	21	16	6	1	1	75	10	1	47	6	9	91.34	49	2
21	21	16	6	1	1	75	10	1	47	6	9	783.31	49	16
21	21	16	6	1	1	75	10	1	48	6	4	8.58	49	1
21	21	16	6	1	1	75	10	1	48	6	4	707.1	49	15
21	21	16	6	1	1	75	10	1	49	16	5	8.01	49	1
21	21	16	6	1	1	75	10	1	50	16	1	146.43	49	3
21	21	16	6	1	1	75	10	1	51	6	10	0	-1	16
21	21	16	6	1	1	75	10	1	52	6	6	559.19	49	12
21	21	16	6	1	1	75	10	1	53	6	3	709.87	49	15
21	21	16	6	1	1	75	10	1	54	6	8	10.39	49	1
21	21	16	6	1	1	75	10	1	55	16	2	42.29	49	1
21	21	16	6	1	1	75	10	1	56	6	2	360.04	49	8
21	21	16	6	1	1	75	10	1	57	6	10	0	-1	16
21	21	16	6	1	1	75	10	1	58	6	9	187.93	49	4
21	21	16	6	1	1	75	10	1	59	16	10	108.43	49	3
21	21	16	6	1	1	75	10	1	60	6	1	312.07	49	7
21	21	16	6	1	1	75	10	1	61	6	8	0	-1	16
21	21	16	6	1	1	75	10	1	62	6	3	171.2	49	4
21	21	16	6	1	1	75	10	1	63	6	6	163.05	49	4
21	21	16	6	1	1	75	10	1	63	6	6	780.34	49	16
21	21	16	6	1	1	75	10	1	64	6	5	10.6	49	1
21	21	16	6	1	1	75	10	1	64	6	5	790.74	49	16
21	21	16	6	1	1	75	10	1	65	6	7	8.43	49	1
21	21	16	6	1	1	75	10	1	66	6	4	260.29	49	6
21	21	16	6	1	1	75	10	1	67	6	7	310.14	49	7
21	21	16	6	1	1	75	10	1	68	6	4	168.83	49	4
21	21	16	6	1	1	75	10	1	69	6	10	136	49	3
21	21	16	6	1	1	75	10	1	70	6	2	426.54	49	9
21	21	16	6	1	1	75	10	1	71	6	1	778.7	49	16
21	21	16	6	1	1	75	10	1	72	6	9	9.58	49	1
21	21	16	6	1	1	75	10	1	73	6	5	107.81	49	3
21	21	16	6	1	1	75	10	1	74	6	6	13.93	49	1
21	21	16	6	1	1	75	10	1	75	6	3	16.92	49	1
21	21	16	6	1	1	75	10	1	76	6	8	181.8	49	4
21	21	16	6	1	1	75	10	1	77	6	5	290.81	49	6
21	21	16	6	1	1	75	10	1	78	16	9	236.1	49	5
21	21	16	6	1	1	75	10	1	79	16	6	0	-1	16
21	21	16	6	1	1	75	10	1	80	16	3	0	-1	16
21	21	16	6	1	1	75	10	1	81	16	8	0	-1	16
21	21	16	6	1	1	75	10	1	82	6	4	760.19	49	16
21	21	16	6	1	1	75	10	1	83	16	7	10.16	49	1
21	21	16	6	1	1	75	10	1	84	6	10	79.1	49	2
21	21	16	6	1	1	75	10	1	85	6	2	0	-1	16
21	21	16	6	1	1	75	10	1	86	6	9	38.3	49	1
21	21	16	6	1	1	75	10	1	87	6	7	42.06	49	1
21	21	16	6	1	1	75	10	1	88	6	8	309.4	49	7
21	21	16	6	1	1	75	10	1	89	6	6	129.91	49	3
21	21	16	6	1	1	75	10	1	90	6	3	182.37	49	4
21	21	16	6	1	1	75	10	1	91	6	1	510.09	49	11
21	21	16	6	1	1	75	10	1	92	6	7	731.15	49	15
21	21	16	6	1	1	75	10	1	93	16	9	7.49	49	1
21	21	16	6	1	1	75	10	1	94	6	5	594.24	49	12
21	21	16	6	1	1	75	10	1	95	6	2	732.09	49	15
21	21	16	6	1	1	75	10	1	96	6	1	9.89	49	1
21	21	16	6	1	1	75	10	1	97	6	9	39.48	49	1
21	21	16	6	1	1	75	10	1	98	16	2	311.56	49	7
21	21	16	6	1	1	75	10	1	99	6	4	742.71	49	15
21	21	16	6	1	1	75	10	1	100	16	4	9	49	1
21	21	16	6	1	1	75	10	1	101	6	10	42.41	49	1
21	21	16	6	1	1	75	10	1	102	6	3	0	-1	16
21	21	16	6	1	1	75	10	1	103	6	6	207.4	49	5
21	21	16	6	1	1	75	10	1	104	6	8	495.29	49	10
21	21	16	6	1	1	75	10	1	105	6	5	607.54	49	13
21	21	16	6	1	1	75	10	1	106	6	9	0	-1	16
21	21	16	6	1	1	75	10	1	107	16	10	90.43	49	2
21	21	16	6	1	1	75	10	1	108	6	4	210.05	49	5
21	21	16	6	1	1	75	10	1	109	16	1	162.69	49	4
21	21	16	6	1	1	75	10	1	110	6	2	0	-1	16
21	21	16	6	1	1	75	10	1	111	6	10	10.63	49	1
21	21	16	6	1	1	75	10	1	111	6	10	725.49	49	15
21	21	16	6	1	1	75	10	1	112	6	6	10.43	49	1
21	21	16	6	1	1	75	10	1	113	16	5	37.08	49	1
21	21	16	6	1	1	75	10	1	114	6	3	784.01	49	16
21	21	16	6	1	1	75	10	1	115	6	7	8.11	49	1
21	21	16	6	1	1	75	10	1	116	16	3	107.1	49	3
21	21	16	6	1	1	75	10	1	117	16	6	0	-1	16
21	21	16	6	1	1	75	10	1	118	16	8	0	-1	16
21	21	16	6	1	1	75	10	1	119	6	8	0	-1	16
21	21	16	6	1	1	75	10	1	120	6	1	9.6	49	1
21	21	16	6	1	1	75	10	1	120	6	1	636.7	49	13
21	21	16	6	1	1	75	10	1	121	16	5	7.98	49	1
21	21	16	6	1	1	75	10	1	122	6	5	638.42	49	13
21	21	16	6	1	1	75	10	1	123	6	2	10.68	49	1
21	21	16	6	1	1	75	10	1	124	16	4	113.01	49	3
21	21	16	6	1	1	75	10	1	125	16	9	19.43	49	1
21	21	16	6	1	1	75	10	1	126	16	10	273.29	49	6
21	21	16	6	1	1	75	10	1	126	16	10	507.9	49	11
21	21	16	6	1	1	75	10	1	127	6	10	0	-1	16
21	21	16	6	1	1	75	10	1	128	16	2	0	-1	16
21	21	16	6	1	1	75	10	1	129	16	6	0	-1	16
21	21	16	6	1	1	75	10	1	130	16	8	0	-1	16
21	21	16	6	1	1	75	10	1	131	16	7	0	-1	16
21	21	16	6	1	1	75	10	1	132	6	9	769.11	49	16
21	21	16	6	1	1	75	10	1	133	6	4	8.38	49	1
21	21	16	6	1	1	75	10	1	133	6	4	681.42	49	14
21	21	16	6	1	1	75	10	1	134	6	8	8.91	49	1
21	21	16	6	1	1	75	10	1	135	6	7	33.51	49	1
21	21	16	6	1	1	75	10	1	136	6	3	170.87	49	4
21	21	16	6	1	1	75	10	1	137	6	6	114.17	49	3
21	21	16	6	1	1	75	10	1	137	6	6	729.29	49	15
21	21	16	6	1	1	75	10	1	138	6	1	11.51	49	1
21	21	16	6	1	1	75	10	1	139	16	3	25.39	49	1
21	21	16	6	1	1	75	10	1	139	16	3	261.06	49	6
21	21	16	6	1	1	75	10	1	140	16	1	0	-1	16
21	21	16	6	1	1	75	10	1	141	16	6	0	-1	16
21	21	16	6	1	1	75	10	1	142	6	7	0	-1	16
21	21	16	6	1	1	75	10	1	143	6	2	12.13	49	1
21	21	16	6	1	1	75	10	1	144	16	10	22.67	49	1
21	21	16	6	1	1	75	10	1	145	6	10	126.45	49	3
21	21	16	6	1	1	75	10	1	146	6	4	207.35	49	5
21	21	16	6	1	1	75	10	1	147	6	5	28.47	49	1
21	21	16	6	1	1	75	10	1	148	6	1	227.68	49	5
21	21	16	6	1	1	75	10	1	149	6	9	72.19	49	2
21	21	16	6	1	1	75	10	1	149	6	9	789.8	49	16
21	21	16	6	1	1	75	10	1	150	6	6	10.78	49	1
21	21	16	6	1	1	75	10	1	151	6	3	71.88	49	2
21	21	16	6	1	1	75	10	1	152	6	8	38.09	49	1
21	21	16	6	1	1	75	10	1	153	6	7	125.7	49	3
21	21	16	6	1	1	75	10	1	154	6	9	121.67	49	3
21	21	16	6	1	1	75	10	1	155	6	4	20.25	49	1
21	21	16	6	1	1	75	10	1	156	6	2	7.85	49	1
21	21	16	6	1	1	75	10	1	157	6	10	108.74	49	3
21	21	16	6	1	1	75	10	1	158	6	5	69.98	49	2
21	21	16	6	1	1	75	10	1	158	6	5	789.76	49	16
21	21	16	6	1	1	75	10	1	159	6	1	7.85	49	1
21	21	16	6	1	1	75	10	1	159	6	1	715.82	49	15
21	21	16	6	1	1	75	10	1	160	6	3	8.24	49	1
21	21	16	6	1	1	75	10	1	160	6	3	709.9	49	15
21	21	16	6	1	1	75	10	1	161	16	4	8.31	49	1
21	21	16	6	1	1	75	10	1	162	6	6	0	-1	16
21	21	16	6	1	1	75	10	1	163	16	8	69.8	49	2
21	21	16	6	1	1	75	10	1	164	6	8	776.78	49	16
21	21	16	6	1	1	75	10	1	165	6	6	10.65	49	1
21	21	16	6	1	1	75	10	1	166	16	7	232.33	49	5
21	21	16	6	1	1	75	10	1	167	6	4	0	-1	16
21	21	16	6	1	1	75	10	1	168	6	5	15.14	49	1
21	21	16	6	1	1	75	10	1	169	6	10	182.31	49	4
21	21	16	6	1	1	75	10	1	170	6	9	159.73	49	4
21	21	16	6	1	1	75	10	1	171	6	7	92.28	49	2
21	21	16	6	1	1	75	10	1	172	16	5	146.56	49	3
21	21	16	6	1	1	75	10	1	173	6	2	0	-1	16
21	21	16	6	1	1	75	10	1	174	16	2	214.68	49	5
21	21	16	6	1	1	75	10	1	175	6	1	710.52	49	15
21	21	16	6	1	1	75	10	1	176	6	8	10.51	49	1
21	21	16	6	1	1	75	10	1	177	6	3	27.27	49	1
21	21	16	6	1	1	75	10	1	177	6	3	765.92	49	16
21	21	16	6	1	1	75	10	1	178	6	5	12.6	49	1
21	21	16	6	1	1	75	10	1	178	6	5	760.53	49	16
21	21	16	6	1	1	75	10	1	179	6	4	10.6	49	1
21	21	16	6	1	1	75	10	1	179	6	4	710.58	49	15
21	21	16	6	1	1	75	10	1	180	6	2	9.63	49	1
21	21	16	6	1	1	75	10	1	181	6	10	157.77	49	4
21	21	16	6	1	1	75	10	1	181	6	10	781.46	49	16
21	21	16	6	1	1	75	10	1	182	6	9	7.97	49	1
21	21	16	6	1	1	75	10	1	183	6	6	65.03	49	2
21	21	16	6	1	1	75	10	1	183	6	6	757.14	49	16
21	21	16	6	1	1	75	10	1	184	16	9	7.96	49	1
21	21	16	6	1	1	75	10	1	185	16	1	0	-1	16
21	21	16	6	1	1	75	10	1	186	6	8	0	-1	16
21	21	16	6	1	1	75	10	1	187	6	7	483.05	49	10
21	21	16	6	1	1	75	10	1	188	6	3	689.2	49	14
21	21	16	6	1	1	75	10	1	189	6	1	8.06	49	1
21	21	16	6	1	1	75	10	1	189	6	1	635.82	49	13
21	21	16	6	1	1	75	10	1	190	6	6	10.43	49	1
21	21	16	6	1	1	75	10	1	191	16	3	180.57	49	4
21	21	16	6	1	1	75	10	1	192	6	4	216.37	49	5
21	21	16	6	1	1	75	10	1	193	6	1	0	-1	16
21	21	16	6	1	1	75	10	1	194	6	2	108.32	49	3
21	21	16	6	1	1	75	10	1	195	16	6	0	-1	16
21	21	16	6	1	1	75	10	1	196	6	5	0	-1	16
21	21	16	6	1	1	75	10	1	197	6	9	0	-1	16
21	21	16	6	1	1	75	10	1	198	16	8	90	49	2
21	21	16	6	1	1	75	10	1	198	16	8	306.79	49	7
21	21	16	6	1	1	75	10	1	199	16	10	0	-1	16
21	21	16	6	1	1	75	10	1	200	6	10	169.72	49	4
21	21	16	6	1	1	75	10	1	201	6	7	0	-1	16
21	21	16	6	1	1	75	10	1	202	6	8	20.58	49	1
21	21	16	6	1	1	75	10	1	203	16	2	210.01	49	5
21	21	16	6	1	1	75	10	1	204	6	3	692.15	49	14
21	21	16	6	1	1	75	10	1	205	16	7	10.69	49	1
21	21	16	6	1	1	75	10	1	205	16	7	784.11	49	16
21	21	16	6	1	1	75	10	1	206	6	7	11.29	49	1
21	21	16	6	1	1	75	10	1	206	6	7	211.92	49	5
21	21	16	6	1	1	75	10	1	207	6	1	0	-1	16
21	21	16	6	1	1	75	10	1	208	6	5	8.69	49	1
21	21	16	6	1	1	75	10	1	208	6	5	627.54	49	13
21	21	16	6	1	1	75	10	1	209	16	1	7.7	49	1
21	21	16	6	1	1	75	10	1	209	16	1	440.95	49	9
21	21	16	6	1	1	75	10	1	210	6	10	0	-1	16
21	21	16	6	1	1	75	10	1	211	6	4	259.9	49	6
21	21	16	6	1	1	75	10	1	212	16	4	90.65	49	2
21	21	16	6	1	1	75	10	1	213	6	2	0	-1	16
21	21	16	6	1	1	75	10	1	214	6	9	234.96	49	5
21	21	16	6	1	1	75	10	1	215	16	5	330.17	49	7
21	21	16	6	1	1	75	10	1	216	6	3	0	-1	16
21	21	16	6	1	1	75	10	1	217	6	6	127.94	49	3
21	21	16	6	1	1	75	10	1	218	6	8	177.07	49	4
21	21	16	6	1	1	75	10	1	219	6	6	209.77	49	5
21	21	16	6	1	1	75	10	1	220	6	4	786.58	49	16
21	21	16	6	1	1	75	10	1	221	16	9	9.66	49	1
21	21	16	6	1	1	75	10	1	222	6	9	360.64	49	8
21	21	16	6	1	1	75	10	1	223	6	10	0	-1	16
21	21	16	6	1	1	75	10	1	224	6	1	759.65	49	16
21	21	16	6	1	1	75	10	1	225	16	3	8.54	49	1
21	21	16	6	1	1	75	10	1	226	6	2	0	-1	16
21	21	16	6	1	1	75	10	1	227	6	7	29.64	49	1
21	21	16	6	1	1	75	10	1	228	6	5	73.61	49	2
21	21	16	6	1	1	75	10	1	229	6	8	270.39	49	6
21	21	16	6	1	1	75	10	1	230	6	3	389.43	49	8
21	21	16	6	1	1	75	10	1	231	6	6	186.03	49	4
21	21	16	6	1	1	75	10	1	232	16	6	18.73	49	1
21	21	16	6	1	1	75	10	1	233	16	7	0	-1	16
21	21	16	6	1	1	75	10	1	234	6	5	729.16	49	15
21	21	16	6	1	1	75	10	1	235	6	7	8.54	49	1
21	21	16	6	1	1	75	10	1	236	16	8	118.56	49	3
21	21	16	6	1	1	75	10	1	237	6	1	0	-1	16
21	21	16	6	1	1	75	10	1	238	6	2	7.76	49	1
21	21	16	6	1	1	75	10	1	238	6	2	209.58	49	5
21	21	16	6	1	1	75	10	1	239	6	8	57.45	49	2
21	21	16	6	1	1	75	10	1	240	6	4	132.21	49	3
21	21	16	6	1	1	75	10	1	240	6	4	774.82	49	16
21	21	16	6	1	1	75	10	1	241	6	9	11.46	49	1
21	21	16	6	1	1	75	10	1	242	6	10	227.6	49	5
21	21	16	6	1	1	75	10	1	243	6	3	410.96	49	9
21	21	16	6	1	1	75	10	1	244	16	5	0	-1	16
21	21	16	6	1	1	75	10	1	245	6	7	0	-1	16
21	21	16	6	1	1	75	10	1	246	6	10	165.48	49	4
21	21	16	6	1	1	75	10	1	247	6	4	361.13	49	8
21	21	16	6	1	1	75	10	1	248	6	2	574.21	49	12
21	21	16	6	1	1	75	10	1	249	6	5	0	-1	16
21	21	16	6	1	1	75	10	1	250	16	2	83.56	49	2
21	21	16	6	1	1	75	10	1	250	16	2	765.01	49	16
21	21	16	6	1	1	75	10	1	251	16	1	10.47	49	1
21	21	16	6	1	1	75	10	1	252	6	1	0	-1	16
21	21	16	6	1	1	75	10	1	253	16	4	32.99	49	1
21	21	16	6	1	1	75	10	1	254	6	9	23.85	49	1
21	21	16	6	1	1	75	10	1	254	6	9	259.21	49	6
21	21	16	6	1	1	75	10	1	255	6	6	775.84	49	16
21	21	16	6	1	1	75	10	1	256	6	3	8.55	49	1
21	21	16	6	1	1	75	10	1	256	6	3	707.91	49	15
21	21	16	6	1	1	75	10	1	257	6	8	9.94	49	1
21	21	16	6	1	1	75	10	1	258	6	6	260.35	49	6
21	21	16	6	1	1	75	10	1	259	6	2	60.07	49	2
21	21	16	6	1	1	75	10	1	260	6	7	263.88	49	6
21	21	16	6	1	1	75	10	1	261	16	9	369.09	49	8
21	21	16	6	1	1	75	10	1	262	6	8	469.54	49	10
21	21	16	6	1	1	75	10	1	263	6	5	674.54	49	14
21	21	16	6	1	1	75	10	1	264	6	9	7.73	49	1
21	21	16	6	1	1	75	10	1	264	6	9	759.58	49	16
21	21	16	6	1	1	75	10	1	265	16	10	7.69	49	1
21	21	16	6	1	1	75	10	1	266	6	1	191.58	49	4
21	21	16	6	1	1	75	10	1	267	6	4	706.91	49	15
21	21	16	6	1	1	75	10	1	268	6	10	7.71	49	1
21	21	16	6	1	1	75	10	1	269	16	3	82	49	2
21	21	16	6	1	1	75	10	1	270	6	3	209.37	49	5
21	21	16	6	1	1	75	10	1	271	16	7	0	-1	16
21	21	16	6	1	1	75	10	1	272	6	6	110.17	49	3
21	21	16	6	1	1	75	10	1	273	16	1	0	-1	16
21	21	16	6	1	1	75	10	1	274	6	8	191.27	49	4
21	21	16	6	1	1	75	10	1	275	6	4	708.26	49	15
21	21	16	6	1	1	75	10	1	276	16	10	7.93	49	1
21	21	16	6	1	1	75	10	1	277	6	10	143.67	49	3
21	21	16	6	1	1	75	10	1	277	6	10	356.76	49	8
21	21	16	6	1	1	75	10	1	278	6	2	207.12	49	5
21	21	16	6	1	1	75	10	1	279	6	9	309.81	49	7
21	21	16	6	1	1	75	10	1	280	6	1	194.12	49	4
21	21	16	6	1	1	75	10	1	281	6	5	8.08	49	1
21	21	16	6	1	1	75	10	1	281	6	5	628.88	49	13
21	21	16	6	1	1	75	10	1	282	6	7	0	-1	16
21	21	16	6	1	1	75	10	1	283	6	3	60.38	49	2
21	21	16	6	1	1	75	10	1	284	6	2	80.41	49	2
21	21	16	6	1	1	75	10	1	285	6	10	320.41	49	7
21	21	16	6	1	1	75	10	1	286	6	9	41.49	49	1
21	21	16	6	1	1	75	10	1	287	6	8	117.33	49	3
21	21	16	6	1	1	75	10	1	288	16	9	233.38	49	5
21	21	16	6	1	1	75	10	1	289	6	5	637.22	49	13
21	21	16	6	1	1	75	10	1	290	6	1	765.75	49	16
21	21	16	6	1	1	75	10	1	291	6	7	8.92	49	1
21	21	16	6	1	1	75	10	1	292	16	2	536.94	49	11
21	21	16	6	1	1	75	10	1	293	6	3	762.57	49	16
21	21	16	6	1	1	75	10	1	294	6	6	12.52	49	1
21	21	16	6	1	1	75	10	1	295	6	4	131.14	49	3
21	21	16	6	1	1	75	10	1	296	16	5	512.11	49	11
21	21	16	6	1	1	75	10	1	296	16	5	760.23	49	16
21	21	16	6	1	1	75	10	1	297	16	4	10.27	49	1
21	21	16	6	1	1	75	10	1	297	16	4	520.83	49	11
21	21	16	6	1	1	75	10	1	298	6	2	0	-1	16
21	21	16	6	1	1	75	10	1	299	6	9	229.46	49	5
21	21	16	6	1	1	75	10	1	300	6	10	591.12	49	12
21	21	16	6	1	1	75	10	1	301	16	6	607.64	49	13
21	21	16	6	1	1	75	10	1	302	6	1	0	-1	16
21	21	16	6	1	1	75	10	1	303	6	8	92.57	49	2
21	21	16	6	1	1	75	10	1	304	16	3	87.31	49	2
21	21	16	6	1	1	75	10	1	305	6	6	732.71	49	15
21	21	16	6	1	1	75	10	1	306	16	8	10.35	49	1
21	21	16	6	1	1	75	10	1	307	6	7	109.64	49	3
21	21	16	6	1	1	75	10	1	307	6	7	310.15	49	7
21	21	16	6	1	1	75	10	1	307	6	7	518.19	49	11
21	21	16	6	1	1	75	10	1	307	6	7	761.46	49	16
21	21	16	6	1	1	75	10	1	308	6	3	0	-1	16
21	21	16	6	1	1	75	10	1	309	16	7	0	-1	16
21	21	16	6	1	1	75	10	1	310	16	1	0	-1	16
21	21	16	6	1	1	75	10	1	311	6	5	0	-1	16
21	21	16	6	1	1	75	10	1	312	6	4	717.58	49	15
21	21	16	6	1	1	75	10	1	313	6	7	7.74	49	1
21	21	16	6	1	1	75	10	1	313	6	7	637.67	49	13
21	21	16	6	1	1	75	10	1	314	16	9	7.75	49	1
21	21	16	6	1	1	75	10	1	315	6	9	357.17	49	8
21	21	16	6	1	1	75	10	1	315	6	9	559.7	49	12
21	21	16	6	1	1	75	10	1	316	16	4	793.9	49	16
21	21	16	6	1	1	75	10	1	317	6	2	7.72	49	1
21	21	16	6	1	1	75	10	1	317	6	2	209.07	49	5
21	21	16	6	1	1	75	10	1	317	6	2	409.38	49	9
21	21	16	6	1	1	75	10	1	318	6	4	169.92	49	4
21	21	16	6	1	1	75	10	1	319	16	5	0	-1	16
21	21	16	6	1	1	75	10	1	320	6	5	759.75	49	16
21	21	16	6	1	1	75	10	1	321	6	1	10.46	49	1
21	21	16	6	1	1	75	10	1	322	6	10	112.74	49	3
21	21	16	6	1	1	75	10	1	323	16	10	11.16	49	1
21	21	16	6	1	1	75	10	1	323	16	10	767.83	49	16
21	21	16	6	1	1	75	10	1	324	16	2	9.35	49	1
21	21	16	6	1	1	75	10	1	325	6	6	228.77	49	5
21	21	16	6	1	1	75	10	1	326	6	3	288.62	49	6
21	21	16	6	1	1	75	10	1	326	6	3	509.53	49	11
21	21	16	6	1	1	75	10	1	327	6	8	507.26	49	11
21	21	16	6	1	1	75	10	1	328	6	5	743.32	49	15
21	21	16	6	1	1	75	10	1	329	6	10	10.77	49	1
21	21	16	6	1	1	75	10	1	330	6	4	342.73	49	7
21	21	16	6	1	1	75	10	1	330	6	4	560.84	49	12
21	21	16	6	1	1	75	10	1	331	6	9	0	-1	16
21	21	16	6	1	1	75	10	1	332	6	2	159.58	49	4
21	21	16	6	1	1	75	10	1	333	6	8	370.86	49	8
21	21	16	6	1	1	75	10	1	334	6	7	459.93	49	10
21	21	16	6	1	1	75	10	1	335	6	3	710.34	49	15
21	21	16	6	1	1	75	10	1	336	6	6	10.16	49	1
21	21	16	6	1	1	75	10	1	336	6	6	663.29	49	14
21	21	16	6	1	1	75	10	1	337	6	1	9.49	49	1
21	21	16	6	1	1	75	10	1	338	6	7	44.18	49	1
21	21	16	6	1	1	75	10	1	339	6	9	207.93	49	5
21	21	16	6	1	1	75	10	1	340	6	4	566.31	49	12
21	21	16	6	1	1	75	10	1	341	6	10	0	-1	16
21	21	16	6	1	1	75	10	1	342	6	5	92.18	49	2
21	21	16	6	1	1	75	10	1	343	16	6	159.05	49	4
21	21	16	6	1	1	75	10	1	343	16	6	406.85	49	9
21	21	16	6	1	1	75	10	1	344	16	3	184.5	49	4
21	21	16	6	1	1	75	10	1	344	16	3	406.85	49	9
21	21	16	6	1	1	75	10	1	345	16	8	139.87	49	3
21	21	16	6	1	1	75	10	1	345	16	8	360.96	49	8
21	21	16	6	1	1	75	10	1	346	6	2	0	-1	16
21	21	16	6	1	1	75	10	1	347	16	2	709.82	49	15
21	21	16	6	1	1	75	10	1	348	6	1	12.54	49	1
21	21	16	6	1	1	75	10	1	349	6	3	136.53	49	3
21	21	16	6	1	1	75	10	1	350	6	6	376.44	49	8
21	21	16	6	1	1	75	10	1	350	6	6	610.77	49	13
21	21	16	6	1	1	75	10	1	351	6	8	0	-1	16
21	21	16	6	1	1	75	10	1	352	6	2	625.17	49	13
21	21	16	6	1	1	75	10	1	353	6	9	7.66	49	1
21	21	16	6	1	1	75	10	1	353	6	9	558.98	49	12
21	21	16	6	1	1	75	10	1	353	6	9	759	49	16
21	21	16	6	1	1	75	10	1	354	6	10	0	-1	16
21	21	16	6	1	1	75	10	1	355	6	7	72.84	49	2
21	21	16	6	1	1	75	10	1	355	6	7	310.13	49	7
21	21	16	6	1	1	75	10	1	356	16	9	0	-1	16
21	21	16	6	1	1	75	10	1	357	6	1	0	-1	16
21	21	16	6	1	1	75	10	1	358	6	6	0	-1	16
21	21	16	6	1	1	75	10	1	359	6	5	61.94	49	2
21	21	16	6	1	1	75	10	1	360	6	8	59.65	49	2
21	21	16	6	1	1	75	10	1	361	6	3	64.11	49	2
21	21	16	6	1	1	75	10	1	362	6	4	0	-1	16
21	21	16	6	1	1	75	10	1	363	6	5	120.52	49	3
21	21	16	6	1	1	75	10	1	364	6	2	109.99	49	3
21	21	16	6	1	1	75	10	1	364	6	2	742.75	49	15
21	21	16	6	1	1	75	10	1	365	16	10	58.14	49	2
21	21	16	6	1	1	75	10	1	366	6	10	757.35	49	16
21	21	16	6	1	1	75	10	1	367	6	9	7.73	49	1
21	21	16	6	1	1	75	10	1	368	6	4	81.08	49	2
21	21	16	6	1	1	75	10	1	369	6	3	111.55	49	3
21	21	16	6	1	1	75	10	1	369	6	3	357.47	49	8
21	21	16	6	1	1	75	10	1	370	6	8	488.01	49	10
21	21	16	6	1	1	75	10	1	371	6	7	317.97	49	7
21	21	16	6	1	1	75	10	1	371	6	7	558.41	49	12
21	21	16	6	1	1	75	10	1	372	6	6	209.78	49	5
21	21	16	6	1	1	75	10	1	372	6	6	460.19	49	10
21	21	16	6	1	1	75	10	1	373	6	1	0	-1	16
21	21	16	6	1	1	75	10	1	374	6	2	0	-1	16
21	21	16	6	1	1	75	10	1	375	6	10	327.94	49	7
21	21	16	6	1	1	75	10	1	376	6	9	212.43	49	5
21	21	16	6	1	1	75	10	1	377	6	7	61.4	49	2
21	21	16	6	1	1	75	10	1	378	16	7	113.49	49	3
21	21	16	6	1	1	75	10	1	379	16	3	157.54	49	4
21	21	16	6	1	1	75	10	1	380	16	5	0	-1	16
21	21	16	6	1	1	75	10	1	381	6	5	707.17	49	15
21	21	16	6	1	1	75	10	1	382	16	6	7.76	49	1
21	21	16	6	1	1	75	10	1	383	6	8	0	-1	16
21	21	16	6	1	1	75	10	1	384	6	1	116.55	49	3
21	21	16	6	1	1	75	10	1	385	6	6	34.76	49	1
21	21	16	6	1	1	75	10	1	386	6	3	110.25	49	3
21	21	16	6	1	1	75	10	1	387	16	8	76.15	49	2
21	21	16	6	1	1	75	10	1	388	6	4	711.07	49	15
21	21	16	6	1	1	75	10	1	389	6	7	10.34	49	1
21	21	16	6	1	1	75	10	1	390	6	1	66.42	49	2
21	21	16	6	1	1	75	10	1	391	6	2	532.25	49	11
21	21	16	6	1	1	75	10	1	392	6	5	560.98	49	12
21	21	16	6	1	1	75	10	1	393	16	1	659.75	49	14
21	21	16	6	1	1	75	10	1	394	6	10	7.81	49	1
21	21	16	6	1	1	75	10	1	394	6	10	209.21	49	5
21	21	16	6	1	1	75	10	1	394	6	10	409.45	49	9
21	21	16	6	1	1	75	10	1	395	16	4	107.2	49	3
21	21	16	6	1	1	75	10	1	396	6	4	0	-1	16
21	21	16	6	1	1	75	10	1	397	6	9	139.94	49	3
21	21	16	6	1	1	75	10	1	398	6	6	59.84	49	2
21	21	16	6	1	1	75	10	1	399	6	3	0	-1	16
21	21	16	6	1	1	75	10	1	400	6	8	60.83	49	2
21	21	16	6	1	1	75	10	1	401	16	5	57.5	49	2
21	21	16	6	1	1	75	10	1	402	6	6	0	-1	16
21	21	16	6	1	1	75	10	1	403	16	9	691.49	49	14
21	21	16	6	1	1	75	10	1	404	6	10	10.09	49	1
21	21	16	6	1	1	75	10	1	405	6	9	0	-1	16
21	21	16	6	1	1	75	10	1	406	16	2	157.88	49	4
21	21	16	6	1	1	75	10	1	407	16	10	122.31	49	3
21	21	16	6	1	1	75	10	1	408	6	5	0	-1	16
21	21	16	6	1	1	75	10	1	409	16	4	142.29	49	3
21	21	16	6	1	1	75	10	1	409	16	4	610.61	49	13
21	21	16	6	1	1	75	10	1	410	16	6	0	-1	16
21	21	16	6	1	1	75	10	1	411	6	7	773.27	49	16
21	21	16	6	1	1	75	10	1	412	16	7	8.71	49	1
21	21	16	6	1	1	75	10	1	413	6	4	768.63	49	16
21	21	16	6	1	1	75	10	1	414	16	8	10.2	49	1
21	21	16	6	1	1	75	10	1	415	6	2	0	-1	16
21	21	16	6	1	1	75	10	1	416	6	1	209.67	49	5
21	21	16	6	1	1	75	10	1	417	6	8	139.78	49	3
21	21	16	6	1	1	75	10	1	418	6	3	121.85	49	3
21	21	16	6	1	1	75	10	1	419	6	2	0	-1	16
21	21	16	6	1	1	75	10	1	420	6	10	663.98	49	14
21	21	16	6	1	1	75	10	1	421	16	3	13.58	49	1
21	21	16	6	1	1	75	10	1	422	6	9	0	-1	16
21	21	16	6	1	1	75	10	1	423	16	1	215.87	49	5
21	21	16	6	1	1	75	10	1	423	16	1	457.06	49	10
21	21	16	6	1	1	75	10	1	424	6	7	0	-1	16
21	21	16	6	1	1	75	10	1	425	6	6	425.11	49	9
21	21	16	6	1	1	75	10	1	426	16	6	170.65	49	4
21	21	16	6	1	1	75	10	1	426	16	6	794.46	49	16
21	21	16	6	1	1	75	10	1	427	6	5	8.46	49	1
21	21	16	6	1	1	75	10	1	428	16	7	167.58	49	4
21	21	16	6	1	1	75	10	1	429	6	8	0	-1	16
21	21	16	6	1	1	75	10	1	430	6	1	10.85	49	1
21	21	16	6	1	1	75	10	1	430	6	1	666.88	49	14
21	21	16	6	1	1	75	10	1	431	16	1	10.19	49	1
21	21	16	6	1	1	75	10	1	432	6	3	31.39	49	1
21	21	16	6	1	1	75	10	1	433	6	4	0	-1	16
21	21	16	6	1	1	75	10	1	434	6	6	309.69	49	7
21	21	16	6	1	1	75	10	1	435	6	1	560.35	49	12
21	21	16	6	1	1	75	10	1	436	6	4	0	-1	16
21	21	16	6	1	1	75	10	1	437	6	10	477.63	49	10
21	21	16	6	1	1	75	10	1	437	6	10	707.71	49	15
21	21	16	6	1	1	75	10	1	438	6	5	7.49	49	1
21	21	16	6	1	1	75	10	1	439	16	10	671.79	49	14
21	21	16	6	1	1	75	10	1	440	6	7	9.94	49	1
21	21	16	6	1	1	75	10	1	440	6	7	607.6	49	13
21	21	16	6	1	1	75	10	1	441	6	2	0	-1	16
21	21	16	6	1	1	75	10	1	442	6	9	0	-1	16
21	21	16	6	1	1	75	10	1	443	6	8	269.87	49	6
21	21	16	6	1	1	75	10	1	444	6	3	110.03	49	3
21	21	16	6	1	1	75	10	1	445	6	5	435.92	49	9
21	21	16	6	1	1	75	10	1	446	6	4	109.98	49	3
21	21	16	6	1	1	75	10	1	447	6	9	79.92	49	2
21	21	16	6	1	1	75	10	1	448	6	2	122.3	49	3
21	21	16	6	1	1	75	10	1	449	6	10	440.82	49	9
21	21	16	6	1	1	75	10	1	450	6	8	257.05	49	6
