SubjectNum	Age	Gender	PressedTask	Block Type	Block Repeat Num	Response Rate	Onset	Block	Trial	ImgType	ImgNum	RT	PressedC	FrameC
2	28	9	6	4	1	75	10	1	1	6	5	558.14	49	10
2	28	9	6	4	1	75	10	1	2	6	10	495.76	49	10
2	28	9	6	4	1	75	10	1	3	6	4	565.59	49	12
2	28	9	6	4	1	75	10	1	4	6	9	660.98	49	14
2	28	9	6	4	1	75	10	1	5	16	7	7.86	49	1
2	28	9	6	4	1	75	10	1	6	6	2	578.09	49	12
2	28	9	6	4	1	75	10	1	7	6	3	643.23	49	13
2	28	9	6	4	1	75	10	1	8	16	9	12.75	49	1
2	28	9	6	4	1	75	10	1	9	6	8	628.45	49	13
2	28	9	6	4	1	75	10	1	10	16	2	8.95	49	1
2	28	9	6	4	1	75	10	1	11	6	7	621.96	49	13
2	28	9	6	4	1	75	10	1	12	6	6	7.57	49	1
2	28	9	6	4	1	75	10	1	12	6	6	667.06	49	14
2	28	9	6	4	1	75	10	1	13	6	1	9.04	49	1
2	28	9	6	4	1	75	10	1	13	6	1	691.17	49	14
2	28	9	6	4	1	75	10	1	14	16	5	7.61	49	1
2	28	9	6	4	1	75	10	1	15	6	5	669.09	49	14
2	28	9	6	4	1	75	10	1	16	6	2	9.64	49	1
2	28	9	6	4	1	75	10	1	16	6	2	676.87	49	14
2	28	9	6	4	1	75	10	1	17	6	4	8.03	49	1
2	28	9	6	4	1	75	10	1	17	6	4	660.3	49	14
2	28	9	6	4	1	75	10	1	18	6	9	730.47	49	15
2	28	9	6	4	1	75	10	1	19	6	10	10.67	49	1
2	28	9	6	4	1	75	10	1	19	6	10	709.96	49	15
2	28	9	6	4	1	75	10	1	20	16	1	10.44	49	1
2	28	9	6	4	1	75	10	1	21	6	3	610.79	49	13
2	28	9	6	4	1	75	10	1	22	16	10	708.32	49	15
2	28	9	6	4	1	75	10	1	23	6	7	8.26	49	1
2	28	9	6	4	1	75	10	1	23	6	7	609.01	49	13
2	28	9	6	4	1	75	10	1	24	16	4	0	-1	16
2	28	9	6	4	1	75	10	1	25	6	8	763.46	49	16
2	28	9	6	4	1	75	10	1	26	16	3	7.77	49	1
2	28	9	6	4	1	75	10	1	27	6	6	607.16	49	13
2	28	9	6	4	1	75	10	1	28	6	1	664.36	49	14
2	28	9	6	4	1	75	10	1	29	6	6	8.73	49	1
2	28	9	6	4	1	75	10	1	29	6	6	676.47	49	14
2	28	9	6	4	1	75	10	1	30	6	1	9.9	49	1
2	28	9	6	4	1	75	10	1	30	6	1	667.44	49	14
2	28	9	6	4	1	75	10	1	31	16	6	10.27	49	1
2	28	9	6	4	1	75	10	1	32	6	9	639.78	49	13
2	28	9	6	4	1	75	10	1	33	6	8	10.62	49	1
2	28	9	6	4	1	75	10	1	33	6	8	660.72	49	14
2	28	9	6	4	1	75	10	1	34	6	10	9.14	49	1
2	28	9	6	4	1	75	10	1	34	6	10	660.7	49	14
2	28	9	6	4	1	75	10	1	35	16	8	9.89	49	1
2	28	9	6	4	1	75	10	1	36	6	7	608	49	13
2	28	9	6	4	1	75	10	1	37	6	4	658.77	49	14
2	28	9	6	4	1	75	10	1	38	6	2	10.28	49	1
2	28	9	6	4	1	75	10	1	38	6	2	688.15	49	14
2	28	9	6	4	1	75	10	1	39	6	5	8.11	49	1
2	28	9	6	4	1	75	10	1	39	6	5	707.73	49	15
2	28	9	6	4	1	75	10	1	40	16	7	7.39	49	1
2	28	9	6	4	1	75	10	1	41	16	4	673.52	49	14
2	28	9	6	4	1	75	10	1	42	6	3	10.72	49	1
2	28	9	6	4	1	75	10	1	42	6	3	628.41	49	13
2	28	9	6	4	1	75	10	1	43	6	7	11.32	49	1
2	28	9	6	4	1	75	10	1	43	6	7	709.43	49	15
2	28	9	6	4	1	75	10	1	44	6	5	11	49	1
2	28	9	6	4	1	75	10	1	44	6	5	660.4	49	14
2	28	9	6	4	1	75	10	1	45	6	2	10.68	49	1
2	28	9	6	4	1	75	10	1	45	6	2	613.17	49	13
2	28	9	6	4	1	75	10	1	46	6	1	9.47	49	1
2	28	9	6	4	1	75	10	1	46	6	1	608.6	49	13
2	28	9	6	4	1	75	10	1	47	6	9	610.45	49	13
2	28	9	6	4	1	75	10	1	48	6	4	680.43	49	14
2	28	9	6	4	1	75	10	1	49	16	5	7.71	49	1
2	28	9	6	4	1	75	10	1	50	16	1	519.57	49	11
2	28	9	6	4	1	75	10	1	51	6	10	642.48	49	13
2	28	9	6	4	1	75	10	1	52	6	6	7.58	49	1
2	28	9	6	4	1	75	10	1	53	6	3	63.13	49	2
2	28	9	6	4	1	75	10	1	54	6	8	107.6	49	3
2	28	9	6	4	1	75	10	1	55	16	2	161.02	49	4
2	28	9	6	4	1	75	10	1	56	6	2	710.19	49	15
2	28	9	6	4	1	75	10	1	57	6	10	9.99	49	1
2	28	9	6	4	1	75	10	1	57	6	10	710.06	49	15
2	28	9	6	4	1	75	10	1	58	6	9	11.01	49	1
2	28	9	6	4	1	75	10	1	58	6	9	760.27	49	16
2	28	9	6	4	1	75	10	1	59	16	10	10.14	49	1
2	28	9	6	4	1	75	10	1	60	6	1	673.95	49	14
2	28	9	6	4	1	75	10	1	61	6	8	9.98	49	1
2	28	9	6	4	1	75	10	1	61	6	8	769.79	49	16
2	28	9	6	4	1	75	10	1	62	6	3	8.26	49	1
2	28	9	6	4	1	75	10	1	63	6	6	89.71	49	2
2	28	9	6	4	1	75	10	1	64	6	5	266.78	49	6
2	28	9	6	4	1	75	10	1	65	6	7	331.49	49	7
2	28	9	6	4	1	75	10	1	66	6	4	291.13	49	6
2	28	9	6	4	1	75	10	1	67	6	7	426.43	49	9
2	28	9	6	4	1	75	10	1	68	6	4	427.96	49	9
2	28	9	6	4	1	75	10	1	69	6	10	424.53	49	9
2	28	9	6	4	1	75	10	1	70	6	2	660.6	49	14
2	28	9	6	4	1	75	10	1	71	6	1	10.53	49	1
2	28	9	6	4	1	75	10	1	71	6	1	677.01	49	14
2	28	9	6	4	1	75	10	1	72	6	9	8.9	49	1
2	28	9	6	4	1	75	10	1	72	6	9	667.48	49	14
2	28	9	6	4	1	75	10	1	73	6	5	7.95	49	1
2	28	9	6	4	1	75	10	1	73	6	5	674.55	49	14
2	28	9	6	4	1	75	10	1	74	6	6	7.89	49	1
2	28	9	6	4	1	75	10	1	74	6	6	641.91	49	13
2	28	9	6	4	1	75	10	1	75	6	3	8.77	49	1
2	28	9	6	4	1	75	10	1	75	6	3	657.59	49	14
2	28	9	6	4	1	75	10	1	76	6	8	16.44	49	1
2	28	9	6	4	1	75	10	1	76	6	8	709.48	49	15
2	28	9	6	4	1	75	10	1	77	6	5	9.03	49	1
2	28	9	6	4	1	75	10	1	77	6	5	677.07	49	14
2	28	9	6	4	1	75	10	1	78	16	9	8.67	49	1
2	28	9	6	4	1	75	10	1	79	16	6	18.82	49	1
2	28	9	6	4	1	75	10	1	80	16	3	0	-1	16
2	28	9	6	4	1	75	10	1	81	16	8	0	-1	16
2	28	9	6	4	1	75	10	1	82	6	4	659.98	49	14
2	28	9	6	4	1	75	10	1	83	16	7	9.97	49	1
2	28	9	6	4	1	75	10	1	84	6	10	588.89	49	12
2	28	9	6	4	1	75	10	1	85	6	2	759.57	49	16
2	28	9	6	4	1	75	10	1	86	6	9	10.1	49	1
2	28	9	6	4	1	75	10	1	87	6	7	10.78	49	1
2	28	9	6	4	1	75	10	1	88	6	8	115.97	49	3
2	28	9	6	4	1	75	10	1	89	6	6	112.4	49	3
2	28	9	6	4	1	75	10	1	90	6	3	107.29	49	3
2	28	9	6	4	1	75	10	1	91	6	1	179.92	49	4
2	28	9	6	4	1	75	10	1	92	6	7	263.46	49	6
2	28	9	6	4	1	75	10	1	93	16	9	209.98	49	5
2	28	9	6	4	1	75	10	1	94	6	5	589.42	49	12
2	28	9	6	4	1	75	10	1	95	6	2	637.28	49	13
2	28	9	6	4	1	75	10	1	96	6	1	8.9	49	1
2	28	9	6	4	1	75	10	1	96	6	1	636.15	49	13
2	28	9	6	4	1	75	10	1	97	6	9	7.55	49	1
2	28	9	6	4	1	75	10	1	97	6	9	585.79	49	12
2	28	9	6	4	1	75	10	1	98	16	2	0	-1	16
2	28	9	6	4	1	75	10	1	99	6	4	387.67	49	8
2	28	9	6	4	1	75	10	1	100	16	4	544.74	49	11
2	28	9	6	4	1	75	10	1	101	6	10	759.21	49	16
2	28	9	6	4	1	75	10	1	102	6	3	9.77	49	1
2	28	9	6	4	1	75	10	1	102	6	3	733.9	49	15
2	28	9	6	4	1	75	10	1	103	6	6	8.42	49	1
2	28	9	6	4	1	75	10	1	103	6	6	785.16	49	16
2	28	9	6	4	1	75	10	1	104	6	8	10.62	49	1
2	28	9	6	4	1	75	10	1	105	6	5	279.56	49	6
2	28	9	6	4	1	75	10	1	106	6	9	133.59	49	3
2	28	9	6	4	1	75	10	1	107	16	10	182.02	49	4
2	28	9	6	4	1	75	10	1	108	6	4	365.83	49	8
2	28	9	6	4	1	75	10	1	109	16	1	560.04	49	12
2	28	9	6	4	1	75	10	1	110	6	2	773.94	49	16
2	28	9	6	4	1	75	10	1	111	6	10	7.81	49	1
2	28	9	6	4	1	75	10	1	111	6	10	718.84	49	15
2	28	9	6	4	1	75	10	1	112	6	6	7.5	49	1
2	28	9	6	4	1	75	10	1	112	6	6	672.58	49	14
2	28	9	6	4	1	75	10	1	113	16	5	7.83	49	1
2	28	9	6	4	1	75	10	1	114	6	3	675.81	49	14
2	28	9	6	4	1	75	10	1	115	6	7	8.1	49	1
2	28	9	6	4	1	75	10	1	115	6	7	675.28	49	14
2	28	9	6	4	1	75	10	1	116	16	3	8.7	49	1
2	28	9	6	4	1	75	10	1	117	16	6	0	-1	16
2	28	9	6	4	1	75	10	1	118	16	8	0	-1	16
2	28	9	6	4	1	75	10	1	119	6	8	710.01	49	15
2	28	9	6	4	1	75	10	1	120	6	1	10.2	49	1
2	28	9	6	4	1	75	10	1	120	6	1	670.28	49	14
2	28	9	6	4	1	75	10	1	121	16	5	8.96	49	1
2	28	9	6	4	1	75	10	1	122	6	5	776.29	49	16
2	28	9	6	4	1	75	10	1	123	6	2	8.17	49	1
2	28	9	6	4	1	75	10	1	123	6	2	688.81	49	14
2	28	9	6	4	1	75	10	1	124	16	4	8.17	49	1
2	28	9	6	4	1	75	10	1	125	16	9	0	-1	16
2	28	9	6	4	1	75	10	1	126	16	10	0	-1	16
2	28	9	6	4	1	75	10	1	127	6	10	585.78	49	12
2	28	9	6	4	1	75	10	1	128	16	2	0	-1	16
2	28	9	6	4	1	75	10	1	129	16	6	626.05	49	13
2	28	9	6	4	1	75	10	1	130	16	8	0	-1	16
2	28	9	6	4	1	75	10	1	131	16	7	0	-1	16
2	28	9	6	4	1	75	10	1	132	6	9	779.68	49	16
2	28	9	6	4	1	75	10	1	133	6	4	13.39	49	1
2	28	9	6	4	1	75	10	1	133	6	4	712.37	49	15
2	28	9	6	4	1	75	10	1	134	6	8	9.72	49	1
2	28	9	6	4	1	75	10	1	134	6	8	768.72	49	16
2	28	9	6	4	1	75	10	1	135	6	7	8.44	49	1
2	28	9	6	4	1	75	10	1	135	6	7	772.91	49	16
2	28	9	6	4	1	75	10	1	136	6	3	8.22	49	1
2	28	9	6	4	1	75	10	1	136	6	3	669.41	49	14
2	28	9	6	4	1	75	10	1	137	6	6	7.66	49	1
2	28	9	6	4	1	75	10	1	137	6	6	623.85	49	13
2	28	9	6	4	1	75	10	1	138	6	1	689.45	49	14
2	28	9	6	4	1	75	10	1	139	16	3	7.83	49	1
2	28	9	6	4	1	75	10	1	140	16	1	0	-1	16
2	28	9	6	4	1	75	10	1	141	16	6	0	-1	16
2	28	9	6	4	1	75	10	1	142	6	7	710.91	49	15
2	28	9	6	4	1	75	10	1	143	6	2	10.55	49	1
2	28	9	6	4	1	75	10	1	143	6	2	622.13	49	13
2	28	9	6	4	1	75	10	1	144	16	10	10.72	49	1
2	28	9	6	4	1	75	10	1	145	6	10	641.73	49	13
2	28	9	6	4	1	75	10	1	146	6	4	11.24	49	1
2	28	9	6	4	1	75	10	1	146	6	4	660.25	49	14
2	28	9	6	4	1	75	10	1	147	6	5	9.15	49	1
2	28	9	6	4	1	75	10	1	147	6	5	690.57	49	14
2	28	9	6	4	1	75	10	1	148	6	1	9.37	49	1
2	28	9	6	4	1	75	10	1	148	6	1	688.92	49	14
2	28	9	6	4	1	75	10	1	149	6	9	8.33	49	1
2	28	9	6	4	1	75	10	1	149	6	9	621.86	49	13
2	28	9	6	4	1	75	10	1	150	6	6	659.18	49	14
2	28	9	6	4	1	75	10	1	151	6	3	9.43	49	1
2	28	9	6	4	1	75	10	1	151	6	3	661.06	49	14
2	28	9	6	4	1	75	10	1	152	6	8	661.3	49	14
2	28	9	6	4	1	75	10	1	153	6	7	9.06	49	1
2	28	9	6	4	1	75	10	1	153	6	7	709.83	49	15
2	28	9	6	4	1	75	10	1	154	6	9	7.93	49	1
2	28	9	6	4	1	75	10	1	154	6	9	724.64	49	15
2	28	9	6	4	1	75	10	1	155	6	4	8.4	49	1
2	28	9	6	4	1	75	10	1	155	6	4	692.31	49	14
2	28	9	6	4	1	75	10	1	156	6	2	10.73	49	1
2	28	9	6	4	1	75	10	1	156	6	2	732.39	49	15
2	28	9	6	4	1	75	10	1	157	6	10	10.67	49	1
2	28	9	6	4	1	75	10	1	158	6	5	65.24	49	2
2	28	9	6	4	1	75	10	1	158	6	5	789.07	49	16
2	28	9	6	4	1	75	10	1	159	6	1	9.12	49	1
2	28	9	6	4	1	75	10	1	159	6	1	758.87	49	16
2	28	9	6	4	1	75	10	1	160	6	3	10.37	49	1
2	28	9	6	4	1	75	10	1	160	6	3	709.98	49	15
2	28	9	6	4	1	75	10	1	161	16	4	10.26	49	1
2	28	9	6	4	1	75	10	1	162	6	6	609.66	49	13
2	28	9	6	4	1	75	10	1	163	16	8	0	-1	16
2	28	9	6	4	1	75	10	1	164	6	8	633.32	49	13
2	28	9	6	4	1	75	10	1	165	6	6	682.62	49	14
2	28	9	6	4	1	75	10	1	166	16	7	9.71	49	1
2	28	9	6	4	1	75	10	1	167	6	4	684.17	49	14
2	28	9	6	4	1	75	10	1	168	6	5	10.16	49	1
2	28	9	6	4	1	75	10	1	168	6	5	642.69	49	13
2	28	9	6	4	1	75	10	1	169	6	10	10.47	49	1
2	28	9	6	4	1	75	10	1	169	6	10	716.73	49	15
2	28	9	6	4	1	75	10	1	170	6	9	12.91	49	1
2	28	9	6	4	1	75	10	1	170	6	9	759.87	49	16
2	28	9	6	4	1	75	10	1	171	6	7	8.83	49	1
2	28	9	6	4	1	75	10	1	171	6	7	708.59	49	15
2	28	9	6	4	1	75	10	1	172	16	5	8.74	49	1
2	28	9	6	4	1	75	10	1	173	6	2	734.79	49	15
2	28	9	6	4	1	75	10	1	174	16	2	7.94	49	1
2	28	9	6	4	1	75	10	1	174	16	2	709.86	49	15
2	28	9	6	4	1	75	10	1	175	6	1	7.85	49	1
2	28	9	6	4	1	75	10	1	175	6	1	782.69	49	16
2	28	9	6	4	1	75	10	1	176	6	8	7.77	49	1
2	28	9	6	4	1	75	10	1	176	6	8	745.69	49	15
2	28	9	6	4	1	75	10	1	177	6	3	7.36	49	1
2	28	9	6	4	1	75	10	1	177	6	3	657.99	49	14
2	28	9	6	4	1	75	10	1	178	6	5	8.67	49	1
2	28	9	6	4	1	75	10	1	178	6	5	619.71	49	13
2	28	9	6	4	1	75	10	1	179	6	4	620.24	49	13
2	28	9	6	4	1	75	10	1	180	6	2	7.83	49	1
2	28	9	6	4	1	75	10	1	180	6	2	626.79	49	13
2	28	9	6	4	1	75	10	1	181	6	10	726.21	49	15
2	28	9	6	4	1	75	10	1	182	6	9	10.04	49	1
2	28	9	6	4	1	75	10	1	182	6	9	761.29	49	16
2	28	9	6	4	1	75	10	1	183	6	6	8.95	49	1
2	28	9	6	4	1	75	10	1	183	6	6	735.86	49	15
2	28	9	6	4	1	75	10	1	184	16	9	8.29	49	1
2	28	9	6	4	1	75	10	1	185	16	1	0	-1	16
2	28	9	6	4	1	75	10	1	186	6	8	0	-1	16
2	28	9	6	4	1	75	10	1	187	6	7	77.1	49	2
2	28	9	6	4	1	75	10	1	187	6	7	757.72	49	16
2	28	9	6	4	1	75	10	1	188	6	3	8.21	49	1
2	28	9	6	4	1	75	10	1	188	6	3	610.13	49	13
2	28	9	6	4	1	75	10	1	189	6	1	636.87	49	13
2	28	9	6	4	1	75	10	1	190	6	6	621.74	49	13
2	28	9	6	4	1	75	10	1	191	16	3	0	-1	16
2	28	9	6	4	1	75	10	1	192	6	4	581.65	49	12
2	28	9	6	4	1	75	10	1	193	6	1	576.1	49	12
2	28	9	6	4	1	75	10	1	194	6	2	660.28	49	14
2	28	9	6	4	1	75	10	1	195	16	6	10.46	49	1
2	28	9	6	4	1	75	10	1	195	16	6	658.85	49	14
2	28	9	6	4	1	75	10	1	196	6	5	667.98	49	14
2	28	9	6	4	1	75	10	1	197	6	9	8.01	49	1
2	28	9	6	4	1	75	10	1	198	16	8	513.34	49	11
2	28	9	6	4	1	75	10	1	199	16	10	0	-1	16
2	28	9	6	4	1	75	10	1	200	6	10	707.44	49	15
2	28	9	6	4	1	75	10	1	201	6	7	9.04	49	1
2	28	9	6	4	1	75	10	1	202	6	8	8.43	49	1
2	28	9	6	4	1	75	10	1	202	6	8	738.89	49	15
2	28	9	6	4	1	75	10	1	203	16	2	8.05	49	1
2	28	9	6	4	1	75	10	1	204	6	3	760.5	49	16
2	28	9	6	4	1	75	10	1	205	16	7	10.54	49	1
2	28	9	6	4	1	75	10	1	206	6	7	673.17	49	14
2	28	9	6	4	1	75	10	1	207	6	1	10.6	49	1
2	28	9	6	4	1	75	10	1	207	6	1	673	49	14
2	28	9	6	4	1	75	10	1	208	6	5	9.83	49	1
2	28	9	6	4	1	75	10	1	208	6	5	675.31	49	14
2	28	9	6	4	1	75	10	1	209	16	1	8.05	49	1
2	28	9	6	4	1	75	10	1	210	6	10	635.65	49	13
2	28	9	6	4	1	75	10	1	211	6	4	7.84	49	1
2	28	9	6	4	1	75	10	1	211	6	4	641.28	49	13
2	28	9	6	4	1	75	10	1	212	16	4	7.53	49	1
2	28	9	6	4	1	75	10	1	213	6	2	657.16	49	14
2	28	9	6	4	1	75	10	1	214	6	9	7.77	49	1
2	28	9	6	4	1	75	10	1	215	16	5	107.46	49	3
2	28	9	6	4	1	75	10	1	215	16	5	307.8	49	7
2	28	9	6	4	1	75	10	1	216	6	3	510.01	49	11
2	28	9	6	4	1	75	10	1	217	6	6	688.26	49	14
2	28	9	6	4	1	75	10	1	218	6	8	11.27	49	1
2	28	9	6	4	1	75	10	1	218	6	8	676.83	49	14
2	28	9	6	4	1	75	10	1	219	6	6	10.62	49	1
2	28	9	6	4	1	75	10	1	219	6	6	769.6	49	16
2	28	9	6	4	1	75	10	1	220	6	4	10.26	49	1
2	28	9	6	4	1	75	10	1	220	6	4	763.13	49	16
2	28	9	6	4	1	75	10	1	221	16	9	9.4	49	1
2	28	9	6	4	1	75	10	1	222	6	9	516.57	49	11
2	28	9	6	4	1	75	10	1	223	6	10	610.39	49	13
2	28	9	6	4	1	75	10	1	224	6	1	612.34	49	13
2	28	9	6	4	1	75	10	1	225	16	3	7.88	49	1
2	28	9	6	4	1	75	10	1	226	6	2	483.84	49	10
2	28	9	6	4	1	75	10	1	227	6	7	610.16	49	13
2	28	9	6	4	1	75	10	1	228	6	5	684.9	49	14
2	28	9	6	4	1	75	10	1	229	6	8	10.98	49	1
2	28	9	6	4	1	75	10	1	229	6	8	709.89	49	15
2	28	9	6	4	1	75	10	1	230	6	3	10.65	49	1
2	28	9	6	4	1	75	10	1	231	6	6	11.17	49	1
2	28	9	6	4	1	75	10	1	232	16	6	88.7	49	2
2	28	9	6	4	1	75	10	1	233	16	7	0	-1	16
2	28	9	6	4	1	75	10	1	234	6	5	627.19	49	13
2	28	9	6	4	1	75	10	1	235	6	7	757.51	49	16
2	28	9	6	4	1	75	10	1	236	16	8	8.03	49	1
2	28	9	6	4	1	75	10	1	237	6	1	557.03	49	12
2	28	9	6	4	1	75	10	1	238	6	2	631.51	49	13
2	28	9	6	4	1	75	10	1	239	6	8	8.88	49	1
2	28	9	6	4	1	75	10	1	239	6	8	684.75	49	14
2	28	9	6	4	1	75	10	1	240	6	4	8.09	49	1
2	28	9	6	4	1	75	10	1	240	6	4	708.27	49	15
2	28	9	6	4	1	75	10	1	241	6	9	11.81	49	1
2	28	9	6	4	1	75	10	1	241	6	9	680.85	49	14
2	28	9	6	4	1	75	10	1	242	6	10	11.23	49	1
2	28	9	6	4	1	75	10	1	242	6	10	690.82	49	14
2	28	9	6	4	1	75	10	1	243	6	3	14.31	49	1
2	28	9	6	4	1	75	10	1	243	6	3	791.52	49	16
2	28	9	6	4	1	75	10	1	244	16	5	8.06	49	1
2	28	9	6	4	1	75	10	1	245	6	7	608.44	49	13
2	28	9	6	4	1	75	10	1	246	6	10	766.92	49	16
2	28	9	6	4	1	75	10	1	247	6	4	7.9	49	1
2	28	9	6	4	1	75	10	1	247	6	4	693.52	49	14
2	28	9	6	4	1	75	10	1	248	6	2	7.77	49	1
2	28	9	6	4	1	75	10	1	248	6	2	707.36	49	15
2	28	9	6	4	1	75	10	1	249	6	5	7.78	49	1
2	28	9	6	4	1	75	10	1	249	6	5	739.12	49	15
2	28	9	6	4	1	75	10	1	250	16	2	7.93	49	1
2	28	9	6	4	1	75	10	1	251	16	1	124.41	49	3
2	28	9	6	4	1	75	10	1	252	6	1	723.71	49	15
2	28	9	6	4	1	75	10	1	253	16	4	10.09	49	1
2	28	9	6	4	1	75	10	1	254	6	9	471.48	49	10
2	28	9	6	4	1	75	10	1	255	6	6	617.68	49	13
2	28	9	6	4	1	75	10	1	256	6	3	10.64	49	1
2	28	9	6	4	1	75	10	1	256	6	3	661.42	49	14
2	28	9	6	4	1	75	10	1	257	6	8	9.61	49	1
2	28	9	6	4	1	75	10	1	258	6	6	19.41	49	1
2	28	9	6	4	1	75	10	1	258	6	6	789.74	49	16
2	28	9	6	4	1	75	10	1	259	6	2	8.42	49	1
2	28	9	6	4	1	75	10	1	259	6	2	674.54	49	14
2	28	9	6	4	1	75	10	1	260	6	7	7.92	49	1
2	28	9	6	4	1	75	10	1	261	16	9	34.82	49	1
2	28	9	6	4	1	75	10	1	262	6	8	566.33	49	12
2	28	9	6	4	1	75	10	1	263	6	5	561.11	49	12
2	28	9	6	4	1	75	10	1	264	6	9	628.5	49	13
2	28	9	6	4	1	75	10	1	265	16	10	10.01	49	1
2	28	9	6	4	1	75	10	1	266	6	1	574.78	49	12
2	28	9	6	4	1	75	10	1	267	6	4	619.7	49	13
2	28	9	6	4	1	75	10	1	268	6	10	10.58	49	1
2	28	9	6	4	1	75	10	1	268	6	10	664.46	49	14
2	28	9	6	4	1	75	10	1	269	16	3	9.7	49	1
2	28	9	6	4	1	75	10	1	270	6	3	509.46	49	11
2	28	9	6	4	1	75	10	1	271	16	7	0	-1	16
2	28	9	6	4	1	75	10	1	272	6	6	522.64	49	11
2	28	9	6	4	1	75	10	1	273	16	1	684.16	49	14
2	28	9	6	4	1	75	10	1	274	6	8	7.33	49	1
2	28	9	6	4	1	75	10	1	275	6	4	681.2	49	14
2	28	9	6	4	1	75	10	1	276	16	10	8.79	49	1
2	28	9	6	4	1	75	10	1	277	6	10	415.18	49	9
2	28	9	6	4	1	75	10	1	278	6	2	673.16	49	14
2	28	9	6	4	1	75	10	1	279	6	9	10.51	49	1
2	28	9	6	4	1	75	10	1	280	6	1	15.45	49	1
2	28	9	6	4	1	75	10	1	281	6	5	10.48	49	1
2	28	9	6	4	1	75	10	1	282	6	7	35.93	49	1
2	28	9	6	4	1	75	10	1	283	6	3	72.95	49	2
2	28	9	6	4	1	75	10	1	284	6	2	134	49	3
2	28	9	6	4	1	75	10	1	285	6	10	82.67	49	2
2	28	9	6	4	1	75	10	1	286	6	9	19.01	49	1
2	28	9	6	4	1	75	10	1	287	6	8	109.14	49	3
2	28	9	6	4	1	75	10	1	288	16	9	25.14	49	1
2	28	9	6	4	1	75	10	1	289	6	5	560.46	49	12
2	28	9	6	4	1	75	10	1	290	6	1	626.48	49	13
2	28	9	6	4	1	75	10	1	291	6	7	0	-1	16
2	28	9	6	4	1	75	10	1	292	16	2	35.26	49	1
2	28	9	6	4	1	75	10	1	293	6	3	110.65	49	3
2	28	9	6	4	1	75	10	1	294	6	6	738.72	49	15
2	28	9	6	4	1	75	10	1	295	6	4	9.23	49	1
2	28	9	6	4	1	75	10	1	296	16	5	109.34	49	3
2	28	9	6	4	1	75	10	1	297	16	4	675.75	49	14
2	28	9	6	4	1	75	10	1	298	6	2	8.98	49	1
2	28	9	6	4	1	75	10	1	299	6	9	31.21	49	1
2	28	9	6	4	1	75	10	1	300	6	10	85.13	49	2
2	28	9	6	4	1	75	10	1	301	16	6	159.5	49	4
2	28	9	6	4	1	75	10	1	301	16	6	359.81	49	8
2	28	9	6	4	1	75	10	1	302	6	1	0	-1	16
2	28	9	6	4	1	75	10	1	303	6	8	65.9	49	2
2	28	9	6	4	1	75	10	1	304	16	3	34.77	49	1
2	28	9	6	4	1	75	10	1	305	6	6	0	-1	16
2	28	9	6	4	1	75	10	1	306	16	8	25.43	49	1
2	28	9	6	4	1	75	10	1	307	6	7	691.47	49	14
2	28	9	6	4	1	75	10	1	308	6	3	7.46	49	1
2	28	9	6	4	1	75	10	1	308	6	3	638.55	49	13
2	28	9	6	4	1	75	10	1	309	16	7	7.75	49	1
2	28	9	6	4	1	75	10	1	309	16	7	721.48	49	15
2	28	9	6	4	1	75	10	1	310	16	1	7.22	49	1
2	28	9	6	4	1	75	10	1	311	6	5	671.59	49	14
2	28	9	6	4	1	75	10	1	312	6	4	8.25	49	1
2	28	9	6	4	1	75	10	1	312	6	4	577.14	49	12
2	28	9	6	4	1	75	10	1	313	6	7	0	-1	16
2	28	9	6	4	1	75	10	1	314	16	9	32.49	49	1
2	28	9	6	4	1	75	10	1	315	6	9	763.97	49	16
2	28	9	6	4	1	75	10	1	316	16	4	10.48	49	1
2	28	9	6	4	1	75	10	1	317	6	2	761.53	49	16
2	28	9	6	4	1	75	10	1	318	6	4	9.19	49	1
2	28	9	6	4	1	75	10	1	319	16	5	159.06	49	4
2	28	9	6	4	1	75	10	1	319	16	5	359.14	49	8
2	28	9	6	4	1	75	10	1	320	6	5	245.53	49	5
2	28	9	6	4	1	75	10	1	321	6	1	260.02	49	6
2	28	9	6	4	1	75	10	1	322	6	10	309.48	49	7
2	28	9	6	4	1	75	10	1	323	16	10	521.73	49	11
2	28	9	6	4	1	75	10	1	324	16	2	0	-1	16
2	28	9	6	4	1	75	10	1	325	6	6	677.82	49	14
2	28	9	6	4	1	75	10	1	326	6	3	9.68	49	1
2	28	9	6	4	1	75	10	1	326	6	3	720.23	49	15
2	28	9	6	4	1	75	10	1	327	6	8	11.85	49	1
2	28	9	6	4	1	75	10	1	327	6	8	732.27	49	15
2	28	9	6	4	1	75	10	1	328	6	5	10.36	49	1
2	28	9	6	4	1	75	10	1	329	6	10	109.03	49	3
2	28	9	6	4	1	75	10	1	330	6	4	13.66	49	1
2	28	9	6	4	1	75	10	1	330	6	4	710.93	49	15
2	28	9	6	4	1	75	10	1	331	6	9	11.19	49	1
2	28	9	6	4	1	75	10	1	331	6	9	760.17	49	16
2	28	9	6	4	1	75	10	1	332	6	2	8.34	49	1
2	28	9	6	4	1	75	10	1	332	6	2	709.53	49	15
2	28	9	6	4	1	75	10	1	333	6	8	7.98	49	1
2	28	9	6	4	1	75	10	1	333	6	8	689.05	49	14
2	28	9	6	4	1	75	10	1	334	6	7	7.74	49	1
2	28	9	6	4	1	75	10	1	334	6	7	611.58	49	13
2	28	9	6	4	1	75	10	1	335	6	3	678.46	49	14
2	28	9	6	4	1	75	10	1	336	6	6	7.91	49	1
2	28	9	6	4	1	75	10	1	336	6	6	623.61	49	13
2	28	9	6	4	1	75	10	1	337	6	1	627.13	49	13
2	28	9	6	4	1	75	10	1	338	6	7	10.27	49	1
2	28	9	6	4	1	75	10	1	338	6	7	677.29	49	14
2	28	9	6	4	1	75	10	1	339	6	9	9.94	49	1
2	28	9	6	4	1	75	10	1	339	6	9	690.3	49	14
2	28	9	6	4	1	75	10	1	340	6	4	10.16	49	1
2	28	9	6	4	1	75	10	1	340	6	4	788.19	49	16
2	28	9	6	4	1	75	10	1	341	6	10	15.76	49	1
2	28	9	6	4	1	75	10	1	342	6	5	19.62	49	1
2	28	9	6	4	1	75	10	1	343	16	6	21.24	49	1
2	28	9	6	4	1	75	10	1	344	16	3	0	-1	16
2	28	9	6	4	1	75	10	1	345	16	8	0	-1	16
2	28	9	6	4	1	75	10	1	346	6	2	646.52	49	13
2	28	9	6	4	1	75	10	1	347	16	2	7.56	49	1
2	28	9	6	4	1	75	10	1	348	6	1	632.3	49	13
2	28	9	6	4	1	75	10	1	349	6	3	677.92	49	14
2	28	9	6	4	1	75	10	1	350	6	6	10.17	49	1
2	28	9	6	4	1	75	10	1	350	6	6	759.56	49	16
2	28	9	6	4	1	75	10	1	351	6	8	7.91	49	1
2	28	9	6	4	1	75	10	1	351	6	8	760.22	49	16
2	28	9	6	4	1	75	10	1	352	6	2	10.65	49	1
2	28	9	6	4	1	75	10	1	352	6	2	710.05	49	15
2	28	9	6	4	1	75	10	1	353	6	9	9.56	49	1
2	28	9	6	4	1	75	10	1	353	6	9	708.48	49	15
2	28	9	6	4	1	75	10	1	354	6	10	8.09	49	1
2	28	9	6	4	1	75	10	1	354	6	10	636.51	49	13
2	28	9	6	4	1	75	10	1	355	6	7	8.26	49	1
2	28	9	6	4	1	75	10	1	355	6	7	725.83	49	15
2	28	9	6	4	1	75	10	1	356	16	9	8.61	49	1
2	28	9	6	4	1	75	10	1	357	6	1	659.08	49	14
2	28	9	6	4	1	75	10	1	358	6	6	9.48	49	1
2	28	9	6	4	1	75	10	1	358	6	6	631.69	49	13
2	28	9	6	4	1	75	10	1	359	6	5	614.25	49	13
2	28	9	6	4	1	75	10	1	360	6	8	759.8	49	16
2	28	9	6	4	1	75	10	1	361	6	3	8	49	1
2	28	9	6	4	1	75	10	1	361	6	3	685.2	49	14
2	28	9	6	4	1	75	10	1	362	6	4	12.67	49	1
2	28	9	6	4	1	75	10	1	362	6	4	660.13	49	14
2	28	9	6	4	1	75	10	1	363	6	5	9.84	49	1
2	28	9	6	4	1	75	10	1	363	6	5	691.09	49	14
2	28	9	6	4	1	75	10	1	364	6	2	10.48	49	1
2	28	9	6	4	1	75	10	1	364	6	2	665.82	49	14
2	28	9	6	4	1	75	10	1	365	16	10	9	49	1
2	28	9	6	4	1	75	10	1	366	6	10	607.98	49	13
2	28	9	6	4	1	75	10	1	367	6	9	693.13	49	14
2	28	9	6	4	1	75	10	1	368	6	4	7.56	49	1
2	28	9	6	4	1	75	10	1	368	6	4	685.74	49	14
2	28	9	6	4	1	75	10	1	369	6	3	7.87	49	1
2	28	9	6	4	1	75	10	1	369	6	3	614.97	49	13
2	28	9	6	4	1	75	10	1	370	6	8	0	-1	16
2	28	9	6	4	1	75	10	1	371	6	7	167.68	49	4
2	28	9	6	4	1	75	10	1	371	6	7	769.92	49	16
2	28	9	6	4	1	75	10	1	372	6	6	7.65	49	1
2	28	9	6	4	1	75	10	1	372	6	6	727.93	49	15
2	28	9	6	4	1	75	10	1	373	6	1	8.38	49	1
2	28	9	6	4	1	75	10	1	373	6	1	734.57	49	15
2	28	9	6	4	1	75	10	1	374	6	2	10.16	49	1
2	28	9	6	4	1	75	10	1	374	6	2	714.65	49	15
2	28	9	6	4	1	75	10	1	375	6	10	11.03	49	1
2	28	9	6	4	1	75	10	1	375	6	10	775.12	49	16
2	28	9	6	4	1	75	10	1	376	6	9	8.15	49	1
2	28	9	6	4	1	75	10	1	376	6	9	767.55	49	16
2	28	9	6	4	1	75	10	1	377	6	7	19.97	49	1
2	28	9	6	4	1	75	10	1	378	16	7	17.93	49	1
2	28	9	6	4	1	75	10	1	379	16	3	0	-1	16
2	28	9	6	4	1	75	10	1	380	16	5	0	-1	16
2	28	9	6	4	1	75	10	1	381	6	5	657.25	49	14
2	28	9	6	4	1	75	10	1	382	16	6	7.84	49	1
2	28	9	6	4	1	75	10	1	383	6	8	586.29	49	12
2	28	9	6	4	1	75	10	1	384	6	1	660.17	49	14
2	28	9	6	4	1	75	10	1	385	6	6	8.55	49	1
2	28	9	6	4	1	75	10	1	385	6	6	717.24	49	15
2	28	9	6	4	1	75	10	1	386	6	3	13.04	49	1
2	28	9	6	4	1	75	10	1	386	6	3	713.78	49	15
2	28	9	6	4	1	75	10	1	387	16	8	12.86	49	1
2	28	9	6	4	1	75	10	1	388	6	4	628.66	49	13
2	28	9	6	4	1	75	10	1	389	6	7	12.2	49	1
2	28	9	6	4	1	75	10	1	390	6	1	261.94	49	6
2	28	9	6	4	1	75	10	1	391	6	2	10.66	49	1
2	28	9	6	4	1	75	10	1	391	6	2	769.1	49	16
2	28	9	6	4	1	75	10	1	392	6	5	7.86	49	1
2	28	9	6	4	1	75	10	1	392	6	5	707.34	49	15
2	28	9	6	4	1	75	10	1	393	16	1	8.9	49	1
2	28	9	6	4	1	75	10	1	394	6	10	627.9	49	13
2	28	9	6	4	1	75	10	1	395	16	4	7.99	49	1
2	28	9	6	4	1	75	10	1	396	6	4	544.28	49	11
2	28	9	6	4	1	75	10	1	397	6	9	677.3	49	14
2	28	9	6	4	1	75	10	1	398	6	6	7.99	49	1
2	28	9	6	4	1	75	10	1	398	6	6	657.58	49	14
2	28	9	6	4	1	75	10	1	399	6	3	9.24	49	1
2	28	9	6	4	1	75	10	1	399	6	3	658.01	49	14
2	28	9	6	4	1	75	10	1	400	6	8	10.44	49	1
2	28	9	6	4	1	75	10	1	401	16	5	142.89	49	3
2	28	9	6	4	1	75	10	1	402	6	6	479.9	49	10
2	28	9	6	4	1	75	10	1	403	16	9	0	-1	16
2	28	9	6	4	1	75	10	1	404	6	10	622.62	49	13
2	28	9	6	4	1	75	10	1	405	6	9	665.12	49	14
2	28	9	6	4	1	75	10	1	406	16	2	7.79	49	1
2	28	9	6	4	1	75	10	1	407	16	10	319.94	49	7
2	28	9	6	4	1	75	10	1	408	6	5	533.29	49	11
2	28	9	6	4	1	75	10	1	409	16	4	0	-1	16
2	28	9	6	4	1	75	10	1	410	16	6	589.94	49	12
2	28	9	6	4	1	75	10	1	411	6	7	737.13	49	15
2	28	9	6	4	1	75	10	1	412	16	7	10.37	49	1
2	28	9	6	4	1	75	10	1	413	6	4	590.59	49	12
2	28	9	6	4	1	75	10	1	414	16	8	0	-1	16
2	28	9	6	4	1	75	10	1	415	6	2	721.12	49	15
2	28	9	6	4	1	75	10	1	416	6	1	10.51	49	1
2	28	9	6	4	1	75	10	1	416	6	1	724.61	49	15
2	28	9	6	4	1	75	10	1	417	6	8	9.1	49	1
2	28	9	6	4	1	75	10	1	417	6	8	733.68	49	15
2	28	9	6	4	1	75	10	1	418	6	3	9.8	49	1
2	28	9	6	4	1	75	10	1	418	6	3	682.74	49	14
2	28	9	6	4	1	75	10	1	419	6	2	7.94	49	1
2	28	9	6	4	1	75	10	1	419	6	2	679.59	49	14
2	28	9	6	4	1	75	10	1	420	6	10	7.88	49	1
2	28	9	6	4	1	75	10	1	420	6	10	636.21	49	13
2	28	9	6	4	1	75	10	1	421	16	3	7.71	49	1
2	28	9	6	4	1	75	10	1	422	6	9	556.95	49	12
2	28	9	6	4	1	75	10	1	423	16	1	0	-1	16
2	28	9	6	4	1	75	10	1	424	6	7	631.54	49	13
2	28	9	6	4	1	75	10	1	425	6	6	10.42	49	1
2	28	9	6	4	1	75	10	1	425	6	6	734.12	49	15
2	28	9	6	4	1	75	10	1	426	16	6	10.4	49	1
2	28	9	6	4	1	75	10	1	427	6	5	564.7	49	12
2	28	9	6	4	1	75	10	1	428	16	7	0	-1	16
2	28	9	6	4	1	75	10	1	429	6	8	638.77	49	13
2	28	9	6	4	1	75	10	1	430	6	1	9.16	49	1
2	28	9	6	4	1	75	10	1	430	6	1	610.81	49	13
2	28	9	6	4	1	75	10	1	431	16	1	0	-1	16
2	28	9	6	4	1	75	10	1	432	6	3	577.19	49	12
2	28	9	6	4	1	75	10	1	433	6	4	643.74	49	13
2	28	9	6	4	1	75	10	1	434	6	6	7.59	49	1
2	28	9	6	4	1	75	10	1	434	6	6	707.07	49	15
2	28	9	6	4	1	75	10	1	435	6	1	7.78	49	1
2	28	9	6	4	1	75	10	1	435	6	1	790.22	49	16
2	28	9	6	4	1	75	10	1	436	6	4	8.02	49	1
2	28	9	6	4	1	75	10	1	436	6	4	744.65	49	15
2	28	9	6	4	1	75	10	1	437	6	10	8.35	49	1
2	28	9	6	4	1	75	10	1	437	6	10	718.87	49	15
2	28	9	6	4	1	75	10	1	438	6	5	10.33	49	1
2	28	9	6	4	1	75	10	1	438	6	5	717.5	49	15
2	28	9	6	4	1	75	10	1	439	16	10	10.36	49	1
2	28	9	6	4	1	75	10	1	440	6	7	542.61	49	11
2	28	9	6	4	1	75	10	1	441	6	2	710.21	49	15
2	28	9	6	4	1	75	10	1	442	6	9	11.29	49	1
2	28	9	6	4	1	75	10	1	442	6	9	743.86	49	15
2	28	9	6	4	1	75	10	1	443	6	8	8.98	49	1
2	28	9	6	4	1	75	10	1	443	6	8	692.38	49	14
2	28	9	6	4	1	75	10	1	444	6	3	7.95	49	1
2	28	9	6	4	1	75	10	1	444	6	3	669.76	49	14
2	28	9	6	4	1	75	10	1	445	6	5	7.59	49	1
2	28	9	6	4	1	75	10	1	445	6	5	658.99	49	14
2	28	9	6	4	1	75	10	1	446	6	4	7.49	49	1
2	28	9	6	4	1	75	10	1	446	6	4	582.24	49	12
2	28	9	6	4	1	75	10	1	447	6	9	633.36	49	13
2	28	9	6	4	1	75	10	1	448	6	2	668.81	49	14
2	28	9	6	4	1	75	10	1	449	6	10	11.6	49	1
2	28	9	6	4	1	75	10	1	449	6	10	660.97	49	14
2	28	9	6	4	1	75	10	1	450	6	8	10.99	49	1
2	28	9	6	4	1	75	10	1	450	6	8	708.33	49	15
