SubjectNum	Age	Gender	PressedTask	Block Type	Block Repeat Num	Response Rate	Onset	Block	Trial	ImgType	ImgNum	RT	PressedC	FrameC
20	23	9	6	1	1	75	10	1	1	6	5	0	-1	16
20	23	9	6	1	1	75	10	1	2	6	10	36.68	49	1
20	23	9	6	1	1	75	10	1	3	6	4	81.49	49	2
20	23	9	6	1	1	75	10	1	4	6	9	69.28	49	2
20	23	9	6	1	1	75	10	1	5	16	7	178.13	49	4
20	23	9	6	1	1	75	10	1	6	6	2	710.64	49	15
20	23	9	6	1	1	75	10	1	7	6	3	12.79	49	1
20	23	9	6	1	1	75	10	1	7	6	3	760.89	49	16
20	23	9	6	1	1	75	10	1	8	16	9	38.87	49	1
20	23	9	6	1	1	75	10	1	9	6	8	668.84	49	14
20	23	9	6	1	1	75	10	1	10	16	2	8.02	49	1
20	23	9	6	1	1	75	10	1	11	6	7	664.22	49	14
20	23	9	6	1	1	75	10	1	12	6	6	7.88	49	1
20	23	9	6	1	1	75	10	1	12	6	6	607.28	49	13
20	23	9	6	1	1	75	10	1	13	6	1	678.99	49	14
20	23	9	6	1	1	75	10	1	14	16	5	10.16	49	1
20	23	9	6	1	1	75	10	1	14	16	5	676.55	49	14
20	23	9	6	1	1	75	10	1	15	6	5	8.38	49	1
20	23	9	6	1	1	75	10	1	15	6	5	537.16	49	11
20	23	9	6	1	1	75	10	1	16	6	2	0	-1	16
20	23	9	6	1	1	75	10	1	17	6	4	10.24	49	1
20	23	9	6	1	1	75	10	1	17	6	4	760.09	49	16
20	23	9	6	1	1	75	10	1	18	6	9	27.75	49	1
20	23	9	6	1	1	75	10	1	19	6	10	62.1	49	2
20	23	9	6	1	1	75	10	1	20	16	1	64.14	49	2
20	23	9	6	1	1	75	10	1	21	6	3	264.66	49	6
20	23	9	6	1	1	75	10	1	22	16	10	0	-1	16
20	23	9	6	1	1	75	10	1	23	6	7	669.19	49	14
20	23	9	6	1	1	75	10	1	24	16	4	9.08	49	1
20	23	9	6	1	1	75	10	1	25	6	8	756.86	49	16
20	23	9	6	1	1	75	10	1	26	16	3	7.88	49	1
20	23	9	6	1	1	75	10	1	27	6	6	613.88	49	13
20	23	9	6	1	1	75	10	1	28	6	1	617.82	49	13
20	23	9	6	1	1	75	10	1	29	6	6	759.61	49	16
20	23	9	6	1	1	75	10	1	30	6	1	10.34	49	1
20	23	9	6	1	1	75	10	1	30	6	1	759.92	49	16
20	23	9	6	1	1	75	10	1	31	16	6	10.72	49	1
20	23	9	6	1	1	75	10	1	32	6	9	678.69	49	14
20	23	9	6	1	1	75	10	1	33	6	8	12.46	49	1
20	23	9	6	1	1	75	10	1	33	6	8	739.81	49	15
20	23	9	6	1	1	75	10	1	34	6	10	8.15	49	1
20	23	9	6	1	1	75	10	1	34	6	10	636.37	49	13
20	23	9	6	1	1	75	10	1	35	16	8	641.2	49	13
20	23	9	6	1	1	75	10	1	36	6	7	0	-1	16
20	23	9	6	1	1	75	10	1	37	6	4	642.67	49	13
20	23	9	6	1	1	75	10	1	38	6	2	7.78	49	1
20	23	9	6	1	1	75	10	1	39	6	5	184.07	49	4
20	23	9	6	1	1	75	10	1	40	16	7	166.46	49	4
20	23	9	6	1	1	75	10	1	41	16	4	785.11	49	16
20	23	9	6	1	1	75	10	1	42	6	3	12.5	49	1
20	23	9	6	1	1	75	10	1	42	6	3	591.06	49	12
20	23	9	6	1	1	75	10	1	43	6	7	0	-1	16
20	23	9	6	1	1	75	10	1	44	6	5	111.52	49	3
20	23	9	6	1	1	75	10	1	44	6	5	762.09	49	16
20	23	9	6	1	1	75	10	1	45	6	2	10.52	49	1
20	23	9	6	1	1	75	10	1	45	6	2	759.76	49	16
20	23	9	6	1	1	75	10	1	46	6	1	9.72	49	1
20	23	9	6	1	1	75	10	1	47	6	9	714.72	49	15
20	23	9	6	1	1	75	10	1	48	6	4	8.12	49	1
20	23	9	6	1	1	75	10	1	48	6	4	622.62	49	13
20	23	9	6	1	1	75	10	1	49	16	5	0	-1	16
20	23	9	6	1	1	75	10	1	50	16	1	693.89	49	14
20	23	9	6	1	1	75	10	1	51	6	10	11.34	49	1
20	23	9	6	1	1	75	10	1	51	6	10	484.5	49	10
20	23	9	6	1	1	75	10	1	52	6	6	692.62	49	14
20	23	9	6	1	1	75	10	1	53	6	3	8.61	49	1
20	23	9	6	1	1	75	10	1	54	6	8	131.18	49	3
20	23	9	6	1	1	75	10	1	55	16	2	12.75	49	1
20	23	9	6	1	1	75	10	1	56	6	2	0	-1	16
20	23	9	6	1	1	75	10	1	57	6	10	12.34	49	1
20	23	9	6	1	1	75	10	1	58	6	9	666.17	49	14
20	23	9	6	1	1	75	10	1	59	16	10	8.67	49	1
20	23	9	6	1	1	75	10	1	60	6	1	13.6	49	1
20	23	9	6	1	1	75	10	1	60	6	1	792.58	49	16
20	23	9	6	1	1	75	10	1	61	6	8	8.2	49	1
20	23	9	6	1	1	75	10	1	61	6	8	768.23	49	16
20	23	9	6	1	1	75	10	1	62	6	3	8.09	49	1
20	23	9	6	1	1	75	10	1	62	6	3	780.68	49	16
20	23	9	6	1	1	75	10	1	63	6	6	9.87	49	1
20	23	9	6	1	1	75	10	1	63	6	6	712	49	15
20	23	9	6	1	1	75	10	1	64	6	5	10.42	49	1
20	23	9	6	1	1	75	10	1	64	6	5	761.22	49	16
20	23	9	6	1	1	75	10	1	65	6	7	12.29	49	1
20	23	9	6	1	1	75	10	1	66	6	4	59.67	49	2
20	23	9	6	1	1	75	10	1	66	6	4	761.54	49	16
20	23	9	6	1	1	75	10	1	67	6	7	9.45	49	1
20	23	9	6	1	1	75	10	1	67	6	7	772.5	49	16
20	23	9	6	1	1	75	10	1	68	6	4	8.12	49	1
20	23	9	6	1	1	75	10	1	68	6	4	791.15	49	16
20	23	9	6	1	1	75	10	1	69	6	10	8.04	49	1
20	23	9	6	1	1	75	10	1	69	6	10	745.07	49	15
20	23	9	6	1	1	75	10	1	70	6	2	10.55	49	1
20	23	9	6	1	1	75	10	1	71	6	1	37.91	49	1
20	23	9	6	1	1	75	10	1	71	6	1	760	49	16
20	23	9	6	1	1	75	10	1	72	6	9	7.8	49	1
20	23	9	6	1	1	75	10	1	73	6	5	163.17	49	4
20	23	9	6	1	1	75	10	1	73	6	5	722.67	49	15
20	23	9	6	1	1	75	10	1	74	6	6	8.22	49	1
20	23	9	6	1	1	75	10	1	75	6	3	0	-1	16
20	23	9	6	1	1	75	10	1	76	6	8	77.58	49	2
20	23	9	6	1	1	75	10	1	77	6	5	17.08	49	1
20	23	9	6	1	1	75	10	1	77	6	5	792.51	49	16
20	23	9	6	1	1	75	10	1	78	16	9	10.97	49	1
20	23	9	6	1	1	75	10	1	79	16	6	0	-1	16
20	23	9	6	1	1	75	10	1	80	16	3	0	-1	16
20	23	9	6	1	1	75	10	1	81	16	8	0	-1	16
20	23	9	6	1	1	75	10	1	82	6	4	559.47	49	12
20	23	9	6	1	1	75	10	1	83	16	7	0	-1	16
20	23	9	6	1	1	75	10	1	84	6	10	616.26	49	13
20	23	9	6	1	1	75	10	1	85	6	2	0	-1	16
20	23	9	6	1	1	75	10	1	86	6	9	61.65	49	2
20	23	9	6	1	1	75	10	1	87	6	7	84.7	49	2
20	23	9	6	1	1	75	10	1	88	6	8	59.09	49	2
20	23	9	6	1	1	75	10	1	89	6	6	32.65	49	1
20	23	9	6	1	1	75	10	1	89	6	6	712.31	49	15
20	23	9	6	1	1	75	10	1	90	6	3	12.31	49	1
20	23	9	6	1	1	75	10	1	90	6	3	779	49	16
20	23	9	6	1	1	75	10	1	91	6	1	11.33	49	1
20	23	9	6	1	1	75	10	1	91	6	1	761.78	49	16
20	23	9	6	1	1	75	10	1	92	6	7	9.72	49	1
20	23	9	6	1	1	75	10	1	92	6	7	790.17	49	16
20	23	9	6	1	1	75	10	1	93	16	9	8.75	49	1
20	23	9	6	1	1	75	10	1	94	6	5	671.65	49	14
20	23	9	6	1	1	75	10	1	95	6	2	8.18	49	1
20	23	9	6	1	1	75	10	1	96	6	1	57.45	49	2
20	23	9	6	1	1	75	10	1	97	6	9	14.11	49	1
20	23	9	6	1	1	75	10	1	97	6	9	657.3	49	14
20	23	9	6	1	1	75	10	1	98	16	2	7.42	49	1
20	23	9	6	1	1	75	10	1	99	6	4	643.59	49	13
20	23	9	6	1	1	75	10	1	100	16	4	8.34	49	1
20	23	9	6	1	1	75	10	1	101	6	10	724.77	49	15
20	23	9	6	1	1	75	10	1	102	6	3	12.6	49	1
20	23	9	6	1	1	75	10	1	102	6	3	666.11	49	14
20	23	9	6	1	1	75	10	1	103	6	6	12.59	49	1
20	23	9	6	1	1	75	10	1	103	6	6	665.36	49	14
20	23	9	6	1	1	75	10	1	104	6	8	11.18	49	1
20	23	9	6	1	1	75	10	1	105	6	5	28.29	49	1
20	23	9	6	1	1	75	10	1	106	6	9	31.63	49	1
20	23	9	6	1	1	75	10	1	107	16	10	132.17	49	3
20	23	9	6	1	1	75	10	1	108	6	4	217.91	49	5
20	23	9	6	1	1	75	10	1	109	16	1	0	-1	16
20	23	9	6	1	1	75	10	1	110	6	2	0	-1	16
20	23	9	6	1	1	75	10	1	111	6	10	176.26	49	4
20	23	9	6	1	1	75	10	1	112	6	6	58.15	49	2
20	23	9	6	1	1	75	10	1	113	16	5	11.38	49	1
20	23	9	6	1	1	75	10	1	114	6	3	665.37	49	14
20	23	9	6	1	1	75	10	1	115	6	7	12.53	49	1
20	23	9	6	1	1	75	10	1	115	6	7	713.66	49	15
20	23	9	6	1	1	75	10	1	116	16	3	10.45	49	1
20	23	9	6	1	1	75	10	1	116	16	3	720.03	49	15
20	23	9	6	1	1	75	10	1	117	16	6	9.63	49	1
20	23	9	6	1	1	75	10	1	117	16	6	620.37	49	13
20	23	9	6	1	1	75	10	1	118	16	8	0	-1	16
20	23	9	6	1	1	75	10	1	119	6	8	0	-1	16
20	23	9	6	1	1	75	10	1	120	6	1	27.13	49	1
20	23	9	6	1	1	75	10	1	120	6	1	741.86	49	15
20	23	9	6	1	1	75	10	1	121	16	5	8.02	49	1
20	23	9	6	1	1	75	10	1	122	6	5	726.38	49	15
20	23	9	6	1	1	75	10	1	123	6	2	8.55	49	1
20	23	9	6	1	1	75	10	1	123	6	2	790.25	49	16
20	23	9	6	1	1	75	10	1	124	16	4	8.49	49	1
20	23	9	6	1	1	75	10	1	125	16	9	0	-1	16
20	23	9	6	1	1	75	10	1	126	16	10	0	-1	16
20	23	9	6	1	1	75	10	1	127	6	10	710.46	49	15
20	23	9	6	1	1	75	10	1	128	16	2	10.54	49	1
20	23	9	6	1	1	75	10	1	129	16	6	0	-1	16
20	23	9	6	1	1	75	10	1	130	16	8	0	-1	16
20	23	9	6	1	1	75	10	1	131	16	7	0	-1	16
20	23	9	6	1	1	75	10	1	132	6	9	708.38	49	15
20	23	9	6	1	1	75	10	1	133	6	4	7.59	49	1
20	23	9	6	1	1	75	10	1	133	6	4	561.71	49	12
20	23	9	6	1	1	75	10	1	134	6	8	795.36	49	16
20	23	9	6	1	1	75	10	1	135	6	7	7.82	49	1
20	23	9	6	1	1	75	10	1	135	6	7	209.51	49	5
20	23	9	6	1	1	75	10	1	135	6	7	759.96	49	16
20	23	9	6	1	1	75	10	1	136	6	3	8.06	49	1
20	23	9	6	1	1	75	10	1	136	6	3	760.91	49	16
20	23	9	6	1	1	75	10	1	137	6	6	9.94	49	1
20	23	9	6	1	1	75	10	1	137	6	6	638.42	49	13
20	23	9	6	1	1	75	10	1	138	6	1	14.27	49	1
20	23	9	6	1	1	75	10	1	139	16	3	0	-1	16
20	23	9	6	1	1	75	10	1	140	16	1	0	-1	16
20	23	9	6	1	1	75	10	1	141	16	6	0	-1	16
20	23	9	6	1	1	75	10	1	142	6	7	691.48	49	14
20	23	9	6	1	1	75	10	1	143	6	2	8.85	49	1
20	23	9	6	1	1	75	10	1	144	16	10	65.29	49	2
20	23	9	6	1	1	75	10	1	145	6	10	641.13	49	13
20	23	9	6	1	1	75	10	1	146	6	4	8.21	49	1
20	23	9	6	1	1	75	10	1	146	6	4	663.46	49	14
20	23	9	6	1	1	75	10	1	147	6	5	7.63	49	1
20	23	9	6	1	1	75	10	1	147	6	5	633.85	49	13
20	23	9	6	1	1	75	10	1	148	6	1	8.45	49	1
20	23	9	6	1	1	75	10	1	148	6	1	758.16	49	16
20	23	9	6	1	1	75	10	1	149	6	9	10.37	49	1
20	23	9	6	1	1	75	10	1	149	6	9	782.6	49	16
20	23	9	6	1	1	75	10	1	150	6	6	10.17	49	1
20	23	9	6	1	1	75	10	1	151	6	3	161.8	49	4
20	23	9	6	1	1	75	10	1	152	6	8	79.55	49	2
20	23	9	6	1	1	75	10	1	153	6	7	69.19	49	2
20	23	9	6	1	1	75	10	1	154	6	9	120.01	49	3
20	23	9	6	1	1	75	10	1	155	6	4	107.88	49	3
20	23	9	6	1	1	75	10	1	155	6	4	310.87	49	7
20	23	9	6	1	1	75	10	1	155	6	4	782.88	49	16
20	23	9	6	1	1	75	10	1	156	6	2	7.7	49	1
20	23	9	6	1	1	75	10	1	157	6	10	207.64	49	5
20	23	9	6	1	1	75	10	1	158	6	5	285.27	49	6
20	23	9	6	1	1	75	10	1	159	6	1	0	-1	16
20	23	9	6	1	1	75	10	1	160	6	3	8	49	1
20	23	9	6	1	1	75	10	1	160	6	3	210.07	49	5
20	23	9	6	1	1	75	10	1	160	6	3	728.17	49	15
20	23	9	6	1	1	75	10	1	161	16	4	8.53	49	1
20	23	9	6	1	1	75	10	1	162	6	6	669.43	49	14
20	23	9	6	1	1	75	10	1	163	16	8	10.06	49	1
20	23	9	6	1	1	75	10	1	164	6	8	721.26	49	15
20	23	9	6	1	1	75	10	1	165	6	6	11.5	49	1
20	23	9	6	1	1	75	10	1	165	6	6	792.54	49	16
20	23	9	6	1	1	75	10	1	166	16	7	9.9	49	1
20	23	9	6	1	1	75	10	1	167	6	4	667.8	49	14
20	23	9	6	1	1	75	10	1	168	6	5	10.37	49	1
20	23	9	6	1	1	75	10	1	169	6	10	126.27	49	3
20	23	9	6	1	1	75	10	1	170	6	9	262.15	49	6
20	23	9	6	1	1	75	10	1	171	6	7	277.3	49	6
20	23	9	6	1	1	75	10	1	172	16	5	374.83	49	8
20	23	9	6	1	1	75	10	1	173	6	2	768.06	49	16
20	23	9	6	1	1	75	10	1	174	16	2	10.68	49	1
20	23	9	6	1	1	75	10	1	175	6	1	759.7	49	16
20	23	9	6	1	1	75	10	1	176	6	8	10.41	49	1
20	23	9	6	1	1	75	10	1	176	6	8	715.97	49	15
20	23	9	6	1	1	75	10	1	177	6	3	12.98	49	1
20	23	9	6	1	1	75	10	1	178	6	5	82.27	49	2
20	23	9	6	1	1	75	10	1	178	6	5	724.79	49	15
20	23	9	6	1	1	75	10	1	179	6	4	8.13	49	1
20	23	9	6	1	1	75	10	1	179	6	4	708.64	49	15
20	23	9	6	1	1	75	10	1	180	6	2	7.91	49	1
20	23	9	6	1	1	75	10	1	181	6	10	165.69	49	4
20	23	9	6	1	1	75	10	1	181	6	10	759.16	49	16
20	23	9	6	1	1	75	10	1	182	6	9	7.9	49	1
20	23	9	6	1	1	75	10	1	182	6	9	745.51	49	15
20	23	9	6	1	1	75	10	1	183	6	6	8.19	49	1
20	23	9	6	1	1	75	10	1	183	6	6	688.94	49	14
20	23	9	6	1	1	75	10	1	184	16	9	7.9	49	1
20	23	9	6	1	1	75	10	1	185	16	1	0	-1	16
20	23	9	6	1	1	75	10	1	186	6	8	0	-1	16
20	23	9	6	1	1	75	10	1	187	6	7	80.17	49	2
20	23	9	6	1	1	75	10	1	187	6	7	793.39	49	16
20	23	9	6	1	1	75	10	1	188	6	3	10.44	49	1
20	23	9	6	1	1	75	10	1	189	6	1	12.58	49	1
20	23	9	6	1	1	75	10	1	189	6	1	760.06	49	16
20	23	9	6	1	1	75	10	1	190	6	6	9.84	49	1
20	23	9	6	1	1	75	10	1	190	6	6	709.64	49	15
20	23	9	6	1	1	75	10	1	191	16	3	12.12	49	1
20	23	9	6	1	1	75	10	1	192	6	4	643.77	49	13
20	23	9	6	1	1	75	10	1	193	6	1	8.25	49	1
20	23	9	6	1	1	75	10	1	193	6	1	684.75	49	14
20	23	9	6	1	1	75	10	1	194	6	2	7.74	49	1
20	23	9	6	1	1	75	10	1	194	6	2	717.07	49	15
20	23	9	6	1	1	75	10	1	195	16	6	8.26	49	1
20	23	9	6	1	1	75	10	1	196	6	5	257.29	49	6
20	23	9	6	1	1	75	10	1	197	6	9	737.74	49	15
20	23	9	6	1	1	75	10	1	198	16	8	9.02	49	1
20	23	9	6	1	1	75	10	1	199	16	10	0	-1	16
20	23	9	6	1	1	75	10	1	200	6	10	733.69	49	15
20	23	9	6	1	1	75	10	1	201	6	7	9.99	49	1
20	23	9	6	1	1	75	10	1	201	6	7	710.03	49	15
20	23	9	6	1	1	75	10	1	202	6	8	10.03	49	1
20	23	9	6	1	1	75	10	1	203	16	2	62.98	49	2
20	23	9	6	1	1	75	10	1	204	6	3	690.8	49	14
20	23	9	6	1	1	75	10	1	205	16	7	8.78	49	1
20	23	9	6	1	1	75	10	1	206	6	7	682.67	49	14
20	23	9	6	1	1	75	10	1	207	6	1	10.38	49	1
20	23	9	6	1	1	75	10	1	207	6	1	772.45	49	16
20	23	9	6	1	1	75	10	1	208	6	5	8.08	49	1
20	23	9	6	1	1	75	10	1	208	6	5	674.73	49	14
20	23	9	6	1	1	75	10	1	209	16	1	7.7	49	1
20	23	9	6	1	1	75	10	1	210	6	10	0	-1	16
20	23	9	6	1	1	75	10	1	211	6	4	61.6	49	2
20	23	9	6	1	1	75	10	1	212	16	4	38.39	49	1
20	23	9	6	1	1	75	10	1	213	6	2	780.51	49	16
20	23	9	6	1	1	75	10	1	214	6	9	11.19	49	1
20	23	9	6	1	1	75	10	1	214	6	9	739.47	49	15
20	23	9	6	1	1	75	10	1	215	16	5	12.58	49	1
20	23	9	6	1	1	75	10	1	216	6	3	721.28	49	15
20	23	9	6	1	1	75	10	1	217	6	6	8.96	49	1
20	23	9	6	1	1	75	10	1	217	6	6	660.9	49	14
20	23	9	6	1	1	75	10	1	218	6	8	7.73	49	1
20	23	9	6	1	1	75	10	1	218	6	8	722.39	49	15
20	23	9	6	1	1	75	10	1	219	6	6	7.82	49	1
20	23	9	6	1	1	75	10	1	219	6	6	673.45	49	14
20	23	9	6	1	1	75	10	1	220	6	4	7.66	49	1
20	23	9	6	1	1	75	10	1	220	6	4	625.95	49	13
20	23	9	6	1	1	75	10	1	221	16	9	0	-1	16
20	23	9	6	1	1	75	10	1	222	6	9	675.42	49	14
20	23	9	6	1	1	75	10	1	223	6	10	8.8	49	1
20	23	9	6	1	1	75	10	1	223	6	10	643.34	49	13
20	23	9	6	1	1	75	10	1	224	6	1	8.08	49	1
20	23	9	6	1	1	75	10	1	224	6	1	715.28	49	15
20	23	9	6	1	1	75	10	1	225	16	3	10.53	49	1
20	23	9	6	1	1	75	10	1	226	6	2	0	-1	16
20	23	9	6	1	1	75	10	1	227	6	7	110.28	49	3
20	23	9	6	1	1	75	10	1	228	6	5	110.56	49	3
20	23	9	6	1	1	75	10	1	228	6	5	787.52	49	16
20	23	9	6	1	1	75	10	1	229	6	8	9.54	49	1
20	23	9	6	1	1	75	10	1	229	6	8	663	49	14
20	23	9	6	1	1	75	10	1	230	6	3	7.85	49	1
20	23	9	6	1	1	75	10	1	230	6	3	692.78	49	14
20	23	9	6	1	1	75	10	1	231	6	6	7.55	49	1
20	23	9	6	1	1	75	10	1	231	6	6	660.82	49	14
20	23	9	6	1	1	75	10	1	232	16	6	7.81	49	1
20	23	9	6	1	1	75	10	1	233	16	7	0	-1	16
20	23	9	6	1	1	75	10	1	234	6	5	569.73	49	12
20	23	9	6	1	1	75	10	1	235	6	7	765.69	49	16
20	23	9	6	1	1	75	10	1	236	16	8	8.08	49	1
20	23	9	6	1	1	75	10	1	236	16	8	718.82	49	15
20	23	9	6	1	1	75	10	1	237	6	1	9.86	49	1
20	23	9	6	1	1	75	10	1	237	6	1	733.65	49	15
20	23	9	6	1	1	75	10	1	238	6	2	10.54	49	1
20	23	9	6	1	1	75	10	1	238	6	2	792.89	49	16
20	23	9	6	1	1	75	10	1	239	6	8	10.38	49	1
20	23	9	6	1	1	75	10	1	240	6	4	36.74	49	1
20	23	9	6	1	1	75	10	1	241	6	9	14.88	49	1
20	23	9	6	1	1	75	10	1	242	6	10	81.52	49	2
20	23	9	6	1	1	75	10	1	243	6	3	41.05	49	1
20	23	9	6	1	1	75	10	1	244	16	5	8.45	49	1
20	23	9	6	1	1	75	10	1	244	16	5	210.7	49	5
20	23	9	6	1	1	75	10	1	245	6	7	730.67	49	15
20	23	9	6	1	1	75	10	1	246	6	10	7.96	49	1
20	23	9	6	1	1	75	10	1	247	6	4	173.79	49	4
20	23	9	6	1	1	75	10	1	247	6	4	786.55	49	16
20	23	9	6	1	1	75	10	1	248	6	2	7.67	49	1
20	23	9	6	1	1	75	10	1	249	6	5	112.09	49	3
20	23	9	6	1	1	75	10	1	249	6	5	782.61	49	16
20	23	9	6	1	1	75	10	1	250	16	2	10.66	49	1
20	23	9	6	1	1	75	10	1	251	16	1	0	-1	16
20	23	9	6	1	1	75	10	1	252	6	1	0	-1	16
20	23	9	6	1	1	75	10	1	253	16	4	19.96	49	1
20	23	9	6	1	1	75	10	1	254	6	9	0	-1	16
20	23	9	6	1	1	75	10	1	255	6	6	8.05	49	1
20	23	9	6	1	1	75	10	1	256	6	3	8.26	49	1
20	23	9	6	1	1	75	10	1	256	6	3	785.42	49	16
20	23	9	6	1	1	75	10	1	257	6	8	7.71	49	1
20	23	9	6	1	1	75	10	1	258	6	6	24.28	49	1
20	23	9	6	1	1	75	10	1	258	6	6	717.96	49	15
20	23	9	6	1	1	75	10	1	259	6	2	8.08	49	1
20	23	9	6	1	1	75	10	1	259	6	2	783.55	49	16
20	23	9	6	1	1	75	10	1	260	6	7	8.28	49	1
20	23	9	6	1	1	75	10	1	261	16	9	57.86	49	2
20	23	9	6	1	1	75	10	1	262	6	8	671.43	49	14
20	23	9	6	1	1	75	10	1	263	6	5	12.15	49	1
20	23	9	6	1	1	75	10	1	263	6	5	685.52	49	14
20	23	9	6	1	1	75	10	1	264	6	9	10.52	49	1
20	23	9	6	1	1	75	10	1	265	16	10	11.29	49	1
20	23	9	6	1	1	75	10	1	266	6	1	25.57	49	1
20	23	9	6	1	1	75	10	1	267	6	4	30.03	49	1
20	23	9	6	1	1	75	10	1	267	6	4	675.81	49	14
20	23	9	6	1	1	75	10	1	268	6	10	7.9	49	1
20	23	9	6	1	1	75	10	1	268	6	10	722.84	49	15
20	23	9	6	1	1	75	10	1	269	16	3	8.06	49	1
20	23	9	6	1	1	75	10	1	270	6	3	767.75	49	16
20	23	9	6	1	1	75	10	1	271	16	7	7.6	49	1
20	23	9	6	1	1	75	10	1	272	6	6	763.36	49	16
20	23	9	6	1	1	75	10	1	273	16	1	10.5	49	1
20	23	9	6	1	1	75	10	1	274	6	8	759.04	49	16
20	23	9	6	1	1	75	10	1	275	6	4	11.33	49	1
20	23	9	6	1	1	75	10	1	275	6	4	725.25	49	15
20	23	9	6	1	1	75	10	1	276	16	10	12.78	49	1
20	23	9	6	1	1	75	10	1	277	6	10	10.9	49	1
20	23	9	6	1	1	75	10	1	277	6	10	730.4	49	15
20	23	9	6	1	1	75	10	1	278	6	2	10.67	49	1
20	23	9	6	1	1	75	10	1	278	6	2	759.35	49	16
20	23	9	6	1	1	75	10	1	279	6	9	10.57	49	1
20	23	9	6	1	1	75	10	1	280	6	1	60.22	49	2
20	23	9	6	1	1	75	10	1	281	6	5	22.96	49	1
20	23	9	6	1	1	75	10	1	281	6	5	757.26	49	16
20	23	9	6	1	1	75	10	1	282	6	7	10.16	49	1
20	23	9	6	1	1	75	10	1	282	6	7	765.58	49	16
20	23	9	6	1	1	75	10	1	283	6	3	7.61	49	1
20	23	9	6	1	1	75	10	1	283	6	3	782.99	49	16
20	23	9	6	1	1	75	10	1	284	6	2	8.11	49	1
20	23	9	6	1	1	75	10	1	285	6	10	42.77	49	1
20	23	9	6	1	1	75	10	1	286	6	9	80.02	49	2
20	23	9	6	1	1	75	10	1	287	6	8	12.44	49	1
20	23	9	6	1	1	75	10	1	287	6	8	732.21	49	15
20	23	9	6	1	1	75	10	1	288	16	9	8.59	49	1
20	23	9	6	1	1	75	10	1	289	6	5	732.61	49	15
20	23	9	6	1	1	75	10	1	290	6	1	11.99	49	1
20	23	9	6	1	1	75	10	1	290	6	1	723.19	49	15
20	23	9	6	1	1	75	10	1	291	6	7	11.48	49	1
20	23	9	6	1	1	75	10	1	292	16	2	84.63	49	2
20	23	9	6	1	1	75	10	1	293	6	3	757.4	49	16
20	23	9	6	1	1	75	10	1	294	6	6	7.42	49	1
20	23	9	6	1	1	75	10	1	294	6	6	736.18	49	15
20	23	9	6	1	1	75	10	1	295	6	4	7.51	49	1
20	23	9	6	1	1	75	10	1	295	6	4	657.75	49	14
20	23	9	6	1	1	75	10	1	296	16	5	0	-1	16
20	23	9	6	1	1	75	10	1	297	16	4	0	-1	16
20	23	9	6	1	1	75	10	1	298	6	2	659.07	49	14
20	23	9	6	1	1	75	10	1	299	6	9	726.01	49	15
20	23	9	6	1	1	75	10	1	300	6	10	11.49	49	1
20	23	9	6	1	1	75	10	1	300	6	10	759.84	49	16
20	23	9	6	1	1	75	10	1	301	16	6	9.95	49	1
20	23	9	6	1	1	75	10	1	302	6	1	760.36	49	16
20	23	9	6	1	1	75	10	1	303	6	8	9.78	49	1
20	23	9	6	1	1	75	10	1	303	6	8	669.55	49	14
20	23	9	6	1	1	75	10	1	304	16	3	8.61	49	1
20	23	9	6	1	1	75	10	1	305	6	6	624.13	49	13
20	23	9	6	1	1	75	10	1	306	16	8	0	-1	16
20	23	9	6	1	1	75	10	1	307	6	7	0	-1	16
20	23	9	6	1	1	75	10	1	308	6	3	35.16	49	1
20	23	9	6	1	1	75	10	1	308	6	3	757.23	49	16
20	23	9	6	1	1	75	10	1	309	16	7	8.26	49	1
20	23	9	6	1	1	75	10	1	310	16	1	0	-1	16
20	23	9	6	1	1	75	10	1	311	6	5	0	-1	16
20	23	9	6	1	1	75	10	1	312	6	4	57.82	49	2
20	23	9	6	1	1	75	10	1	312	6	4	258.52	49	6
20	23	9	6	1	1	75	10	1	312	6	4	709.76	49	15
20	23	9	6	1	1	75	10	1	313	6	7	11.27	49	1
20	23	9	6	1	1	75	10	1	313	6	7	687.62	49	14
20	23	9	6	1	1	75	10	1	314	16	9	12.81	49	1
20	23	9	6	1	1	75	10	1	314	16	9	760.12	49	16
20	23	9	6	1	1	75	10	1	315	6	9	9.42	49	1
20	23	9	6	1	1	75	10	1	315	6	9	662.59	49	14
20	23	9	6	1	1	75	10	1	316	16	4	8.82	49	1
20	23	9	6	1	1	75	10	1	317	6	2	722.86	49	15
20	23	9	6	1	1	75	10	1	318	6	4	8.27	49	1
20	23	9	6	1	1	75	10	1	318	6	4	737.67	49	15
20	23	9	6	1	1	75	10	1	319	16	5	7.77	49	1
20	23	9	6	1	1	75	10	1	320	6	5	736.83	49	15
20	23	9	6	1	1	75	10	1	321	6	1	8.4	49	1
20	23	9	6	1	1	75	10	1	321	6	1	736.4	49	15
20	23	9	6	1	1	75	10	1	322	6	10	8.51	49	1
20	23	9	6	1	1	75	10	1	322	6	10	780.02	49	16
20	23	9	6	1	1	75	10	1	323	16	10	10.25	49	1
20	23	9	6	1	1	75	10	1	323	16	10	788.5	49	16
20	23	9	6	1	1	75	10	1	324	16	2	11.15	49	1
20	23	9	6	1	1	75	10	1	325	6	6	690.36	49	14
20	23	9	6	1	1	75	10	1	326	6	3	11.07	49	1
20	23	9	6	1	1	75	10	1	327	6	8	12.38	49	1
20	23	9	6	1	1	75	10	1	328	6	5	86.39	49	2
20	23	9	6	1	1	75	10	1	328	6	5	660.34	49	14
20	23	9	6	1	1	75	10	1	329	6	10	8.24	49	1
20	23	9	6	1	1	75	10	1	330	6	4	8.19	49	1
20	23	9	6	1	1	75	10	1	330	6	4	710.03	49	15
20	23	9	6	1	1	75	10	1	331	6	9	8.61	49	1
20	23	9	6	1	1	75	10	1	332	6	2	43.38	49	1
20	23	9	6	1	1	75	10	1	333	6	8	0	-1	16
20	23	9	6	1	1	75	10	1	334	6	7	23.28	49	1
20	23	9	6	1	1	75	10	1	334	6	7	795.55	49	16
20	23	9	6	1	1	75	10	1	335	6	3	8.41	49	1
20	23	9	6	1	1	75	10	1	336	6	6	60.11	49	2
20	23	9	6	1	1	75	10	1	337	6	1	112.97	49	3
20	23	9	6	1	1	75	10	1	338	6	7	121.17	49	3
20	23	9	6	1	1	75	10	1	339	6	9	159.92	49	4
20	23	9	6	1	1	75	10	1	340	6	4	80.39	49	2
20	23	9	6	1	1	75	10	1	340	6	4	790.67	49	16
20	23	9	6	1	1	75	10	1	341	6	10	9.22	49	1
20	23	9	6	1	1	75	10	1	342	6	5	7.9	49	1
20	23	9	6	1	1	75	10	1	343	16	6	10.71	49	1
20	23	9	6	1	1	75	10	1	344	16	3	0	-1	16
20	23	9	6	1	1	75	10	1	345	16	8	0	-1	16
20	23	9	6	1	1	75	10	1	346	6	2	774.67	49	16
20	23	9	6	1	1	75	10	1	347	16	2	8.5	49	1
20	23	9	6	1	1	75	10	1	348	6	1	672.85	49	14
20	23	9	6	1	1	75	10	1	349	6	3	10.88	49	1
20	23	9	6	1	1	75	10	1	349	6	3	770.83	49	16
20	23	9	6	1	1	75	10	1	350	6	6	13.45	49	1
20	23	9	6	1	1	75	10	1	350	6	6	689.76	49	14
20	23	9	6	1	1	75	10	1	351	6	8	12.43	49	1
20	23	9	6	1	1	75	10	1	352	6	2	27.9	49	1
20	23	9	6	1	1	75	10	1	352	6	2	686.33	49	14
20	23	9	6	1	1	75	10	1	353	6	9	8.84	49	1
20	23	9	6	1	1	75	10	1	353	6	9	664.56	49	14
20	23	9	6	1	1	75	10	1	354	6	10	8.07	49	1
20	23	9	6	1	1	75	10	1	354	6	10	744.85	49	15
20	23	9	6	1	1	75	10	1	355	6	7	7.5	49	1
20	23	9	6	1	1	75	10	1	356	16	9	7.97	49	1
20	23	9	6	1	1	75	10	1	357	6	1	657.58	49	14
20	23	9	6	1	1	75	10	1	358	6	6	7.9	49	1
20	23	9	6	1	1	75	10	1	358	6	6	639.62	49	13
20	23	9	6	1	1	75	10	1	359	6	5	618.62	49	13
20	23	9	6	1	1	75	10	1	360	6	8	722.4	49	15
20	23	9	6	1	1	75	10	1	361	6	3	9.92	49	1
20	23	9	6	1	1	75	10	1	361	6	3	734.65	49	15
20	23	9	6	1	1	75	10	1	362	6	4	8.77	49	1
20	23	9	6	1	1	75	10	1	362	6	4	765.76	49	16
20	23	9	6	1	1	75	10	1	363	6	5	18.74	49	1
20	23	9	6	1	1	75	10	1	363	6	5	724.88	49	15
20	23	9	6	1	1	75	10	1	364	6	2	9.79	49	1
20	23	9	6	1	1	75	10	1	364	6	2	732.53	49	15
20	23	9	6	1	1	75	10	1	365	16	10	58.96	49	2
20	23	9	6	1	1	75	10	1	365	16	10	785.77	49	16
20	23	9	6	1	1	75	10	1	366	6	10	8.84	49	1
20	23	9	6	1	1	75	10	1	366	6	10	722.63	49	15
20	23	9	6	1	1	75	10	1	367	6	9	7.86	49	1
20	23	9	6	1	1	75	10	1	367	6	9	759.26	49	16
20	23	9	6	1	1	75	10	1	368	6	4	8.09	49	1
20	23	9	6	1	1	75	10	1	368	6	4	757.71	49	16
20	23	9	6	1	1	75	10	1	369	6	3	10.01	49	1
20	23	9	6	1	1	75	10	1	369	6	3	613.2	49	13
20	23	9	6	1	1	75	10	1	370	6	8	0	-1	16
20	23	9	6	1	1	75	10	1	371	6	7	29.16	49	1
20	23	9	6	1	1	75	10	1	372	6	6	43.27	49	1
20	23	9	6	1	1	75	10	1	373	6	1	114.7	49	3
20	23	9	6	1	1	75	10	1	374	6	2	271.27	49	6
20	23	9	6	1	1	75	10	1	375	6	10	159.92	49	4
20	23	9	6	1	1	75	10	1	376	6	9	59.74	49	2
20	23	9	6	1	1	75	10	1	376	6	9	788.04	49	16
20	23	9	6	1	1	75	10	1	377	6	7	10.21	49	1
20	23	9	6	1	1	75	10	1	378	16	7	41.8	49	1
20	23	9	6	1	1	75	10	1	379	16	3	0	-1	16
20	23	9	6	1	1	75	10	1	380	16	5	0	-1	16
20	23	9	6	1	1	75	10	1	381	6	5	657.77	49	14
20	23	9	6	1	1	75	10	1	382	16	6	7.86	49	1
20	23	9	6	1	1	75	10	1	383	6	8	777.48	49	16
20	23	9	6	1	1	75	10	1	384	6	1	8.45	49	1
20	23	9	6	1	1	75	10	1	384	6	1	760.08	49	16
20	23	9	6	1	1	75	10	1	385	6	6	29.11	49	1
20	23	9	6	1	1	75	10	1	385	6	6	734.83	49	15
20	23	9	6	1	1	75	10	1	386	6	3	13.34	49	1
20	23	9	6	1	1	75	10	1	386	6	3	662.49	49	14
20	23	9	6	1	1	75	10	1	387	16	8	12.44	49	1
20	23	9	6	1	1	75	10	1	388	6	4	668.71	49	14
20	23	9	6	1	1	75	10	1	389	6	7	8.9	49	1
20	23	9	6	1	1	75	10	1	390	6	1	85.2	49	2
20	23	9	6	1	1	75	10	1	390	6	1	673.52	49	14
20	23	9	6	1	1	75	10	1	391	6	2	7.65	49	1
20	23	9	6	1	1	75	10	1	391	6	2	772.69	49	16
20	23	9	6	1	1	75	10	1	392	6	5	8.11	49	1
20	23	9	6	1	1	75	10	1	392	6	5	618.03	49	13
20	23	9	6	1	1	75	10	1	393	16	1	0	-1	16
20	23	9	6	1	1	75	10	1	394	6	10	710.84	49	15
20	23	9	6	1	1	75	10	1	395	16	4	18.17	49	1
20	23	9	6	1	1	75	10	1	396	6	4	789.86	49	16
20	23	9	6	1	1	75	10	1	397	6	9	10.1	49	1
20	23	9	6	1	1	75	10	1	398	6	6	68.85	49	2
20	23	9	6	1	1	75	10	1	398	6	6	741.42	49	15
20	23	9	6	1	1	75	10	1	399	6	3	13	49	1
20	23	9	6	1	1	75	10	1	400	6	8	14.24	49	1
20	23	9	6	1	1	75	10	1	400	6	8	732.5	49	15
20	23	9	6	1	1	75	10	1	401	16	5	9.19	49	1
20	23	9	6	1	1	75	10	1	401	16	5	772.49	49	16
20	23	9	6	1	1	75	10	1	402	6	6	9.17	49	1
20	23	9	6	1	1	75	10	1	402	6	6	709.37	49	15
20	23	9	6	1	1	75	10	1	403	16	9	8.15	49	1
20	23	9	6	1	1	75	10	1	404	6	10	707.61	49	15
20	23	9	6	1	1	75	10	1	405	6	9	7.81	49	1
20	23	9	6	1	1	75	10	1	405	6	9	707.19	49	15
20	23	9	6	1	1	75	10	1	406	16	2	7.72	49	1
20	23	9	6	1	1	75	10	1	406	16	2	785.2	49	16
20	23	9	6	1	1	75	10	1	407	16	10	8.68	49	1
20	23	9	6	1	1	75	10	1	408	6	5	657.85	49	14
20	23	9	6	1	1	75	10	1	409	16	4	10.42	49	1
20	23	9	6	1	1	75	10	1	410	16	6	0	-1	16
20	23	9	6	1	1	75	10	1	411	6	7	210.64	49	5
20	23	9	6	1	1	75	10	1	412	16	7	0	-1	16
20	23	9	6	1	1	75	10	1	413	6	4	671.89	49	14
20	23	9	6	1	1	75	10	1	414	16	8	8.3	49	1
20	23	9	6	1	1	75	10	1	415	6	2	767.12	49	16
20	23	9	6	1	1	75	10	1	416	6	1	8.42	49	1
20	23	9	6	1	1	75	10	1	417	6	8	44.08	49	1
20	23	9	6	1	1	75	10	1	417	6	8	791.75	49	16
20	23	9	6	1	1	75	10	1	418	6	3	8.22	49	1
20	23	9	6	1	1	75	10	1	418	6	3	738.53	49	15
20	23	9	6	1	1	75	10	1	419	6	2	8.2	49	1
20	23	9	6	1	1	75	10	1	420	6	10	60.4	49	2
20	23	9	6	1	1	75	10	1	421	16	3	107.61	49	3
20	23	9	6	1	1	75	10	1	422	6	9	771.63	49	16
20	23	9	6	1	1	75	10	1	423	16	1	12.82	49	1
20	23	9	6	1	1	75	10	1	424	6	7	787.63	49	16
20	23	9	6	1	1	75	10	1	425	6	6	9.76	49	1
20	23	9	6	1	1	75	10	1	425	6	6	777.71	49	16
20	23	9	6	1	1	75	10	1	426	16	6	9.25	49	1
20	23	9	6	1	1	75	10	1	427	6	5	609.21	49	13
20	23	9	6	1	1	75	10	1	428	16	7	0	-1	16
20	23	9	6	1	1	75	10	1	429	6	8	0	-1	16
20	23	9	6	1	1	75	10	1	430	6	1	59.9	49	2
20	23	9	6	1	1	75	10	1	430	6	1	759.89	49	16
20	23	9	6	1	1	75	10	1	431	16	1	7.8	49	1
20	23	9	6	1	1	75	10	1	432	6	3	660.62	49	14
20	23	9	6	1	1	75	10	1	433	6	4	8.29	49	1
20	23	9	6	1	1	75	10	1	433	6	4	757.92	49	16
20	23	9	6	1	1	75	10	1	434	6	6	10.42	49	1
20	23	9	6	1	1	75	10	1	434	6	6	776.07	49	16
20	23	9	6	1	1	75	10	1	435	6	1	10.34	49	1
20	23	9	6	1	1	75	10	1	435	6	1	715.6	49	15
20	23	9	6	1	1	75	10	1	436	6	4	13.36	49	1
20	23	9	6	1	1	75	10	1	437	6	10	16.27	49	1
20	23	9	6	1	1	75	10	1	437	6	10	681.27	49	14
20	23	9	6	1	1	75	10	1	438	6	5	7.69	49	1
20	23	9	6	1	1	75	10	1	438	6	5	716.44	49	15
20	23	9	6	1	1	75	10	1	439	16	10	8.77	49	1
20	23	9	6	1	1	75	10	1	440	6	7	38.52	49	1
20	23	9	6	1	1	75	10	1	441	6	2	62.13	49	2
20	23	9	6	1	1	75	10	1	442	6	9	157.41	49	4
20	23	9	6	1	1	75	10	1	443	6	8	8.34	49	1
20	23	9	6	1	1	75	10	1	443	6	8	757.67	49	16
20	23	9	6	1	1	75	10	1	444	6	3	8.52	49	1
20	23	9	6	1	1	75	10	1	444	6	3	764.2	49	16
20	23	9	6	1	1	75	10	1	445	6	5	12.79	49	1
20	23	9	6	1	1	75	10	1	445	6	5	729.5	49	15
20	23	9	6	1	1	75	10	1	446	6	4	10.29	49	1
20	23	9	6	1	1	75	10	1	446	6	4	778.8	49	16
20	23	9	6	1	1	75	10	1	447	6	9	10.81	49	1
20	23	9	6	1	1	75	10	1	448	6	2	140.47	49	3
20	23	9	6	1	1	75	10	1	449	6	10	0	-1	16
20	23	9	6	1	1	75	10	1	450	6	8	71.68	49	2
