SubjectNum	Age	Gender	PressedTask	Block Type	Block Repeat Num	Response Rate	Onset	Block	Trial	ImgType	ImgNum	RT	PressedC	FrameC
13	28	16	6	2	1	75	10	1	1	6	5	0	-1	16
13	28	16	6	2	1	75	10	1	2	6	10	64.94	49	2
13	28	16	6	2	1	75	10	1	3	6	4	61.87	49	2
13	28	16	6	2	1	75	10	1	4	6	9	42.81	49	1
13	28	16	6	2	1	75	10	1	4	6	9	737.53	49	15
13	28	16	6	2	1	75	10	1	5	16	7	8.07	49	1
13	28	16	6	2	1	75	10	1	6	6	2	631	49	13
13	28	16	6	2	1	75	10	1	7	6	3	7.65	49	1
13	28	16	6	2	1	75	10	1	7	6	3	625.4	49	13
13	28	16	6	2	1	75	10	1	8	16	9	0	-1	16
13	28	16	6	2	1	75	10	1	9	6	8	658.2	49	14
13	28	16	6	2	1	75	10	1	10	16	2	10.1	49	1
13	28	16	6	2	1	75	10	1	11	6	7	764.02	49	16
13	28	16	6	2	1	75	10	1	12	6	6	13.31	49	1
13	28	16	6	2	1	75	10	1	12	6	6	760.82	49	16
13	28	16	6	2	1	75	10	1	13	6	1	10.59	49	1
13	28	16	6	2	1	75	10	1	13	6	1	762.81	49	16
13	28	16	6	2	1	75	10	1	14	16	5	9.42	49	1
13	28	16	6	2	1	75	10	1	15	6	5	625.31	49	13
13	28	16	6	2	1	75	10	1	16	6	2	7.34	49	1
13	28	16	6	2	1	75	10	1	16	6	2	657.57	49	14
13	28	16	6	2	1	75	10	1	17	6	4	8.31	49	1
13	28	16	6	2	1	75	10	1	17	6	4	609.2	49	13
13	28	16	6	2	1	75	10	1	18	6	9	562.54	49	12
13	28	16	6	2	1	75	10	1	19	6	10	642.13	49	13
13	28	16	6	2	1	75	10	1	20	16	1	7.33	49	1
13	28	16	6	2	1	75	10	1	21	6	3	669.33	49	14
13	28	16	6	2	1	75	10	1	22	16	10	8.06	49	1
13	28	16	6	2	1	75	10	1	23	6	7	710.8	49	15
13	28	16	6	2	1	75	10	1	24	16	4	12.39	49	1
13	28	16	6	2	1	75	10	1	25	6	8	785.87	49	16
13	28	16	6	2	1	75	10	1	26	16	3	13.54	49	1
13	28	16	6	2	1	75	10	1	27	6	6	467.42	49	10
13	28	16	6	2	1	75	10	1	28	6	1	772.25	49	16
13	28	16	6	2	1	75	10	1	29	6	6	8.61	49	1
13	28	16	6	2	1	75	10	1	30	6	1	7.72	49	1
13	28	16	6	2	1	75	10	1	31	16	6	28.88	49	1
13	28	16	6	2	1	75	10	1	32	6	9	34.23	49	1
13	28	16	6	2	1	75	10	1	33	6	8	10.94	49	1
13	28	16	6	2	1	75	10	1	33	6	8	734.68	49	15
13	28	16	6	2	1	75	10	1	34	6	10	7.57	49	1
13	28	16	6	2	1	75	10	1	35	16	8	9.49	49	1
13	28	16	6	2	1	75	10	1	36	6	7	630.56	49	13
13	28	16	6	2	1	75	10	1	37	6	4	561.37	49	12
13	28	16	6	2	1	75	10	1	38	6	2	575.55	49	12
13	28	16	6	2	1	75	10	1	39	6	5	562.2	49	12
13	28	16	6	2	1	75	10	1	40	16	7	611.32	49	13
13	28	16	6	2	1	75	10	1	41	16	4	0	-1	16
13	28	16	6	2	1	75	10	1	42	6	3	642.68	49	13
13	28	16	6	2	1	75	10	1	43	6	7	7.78	49	1
13	28	16	6	2	1	75	10	1	44	6	5	109.83	49	3
13	28	16	6	2	1	75	10	1	45	6	2	14.75	49	1
13	28	16	6	2	1	75	10	1	46	6	1	59.31	49	2
13	28	16	6	2	1	75	10	1	47	6	9	21.96	49	1
13	28	16	6	2	1	75	10	1	47	6	9	792.22	49	16
13	28	16	6	2	1	75	10	1	48	6	4	9.4	49	1
13	28	16	6	2	1	75	10	1	48	6	4	713.4	49	15
13	28	16	6	2	1	75	10	1	49	16	5	10.57	49	1
13	28	16	6	2	1	75	10	1	49	16	5	731.85	49	15
13	28	16	6	2	1	75	10	1	50	16	1	10.65	49	1
13	28	16	6	2	1	75	10	1	51	6	10	639.36	49	13
13	28	16	6	2	1	75	10	1	52	6	6	12	49	1
13	28	16	6	2	1	75	10	1	52	6	6	629.03	49	13
13	28	16	6	2	1	75	10	1	53	6	3	8	49	1
13	28	16	6	2	1	75	10	1	53	6	3	735.07	49	15
13	28	16	6	2	1	75	10	1	54	6	8	7.88	49	1
13	28	16	6	2	1	75	10	1	55	16	2	269.75	49	6
13	28	16	6	2	1	75	10	1	56	6	2	767.44	49	16
13	28	16	6	2	1	75	10	1	57	6	10	7.95	49	1
13	28	16	6	2	1	75	10	1	57	6	10	734.61	49	15
13	28	16	6	2	1	75	10	1	58	6	9	7.5	49	1
13	28	16	6	2	1	75	10	1	58	6	9	729.37	49	15
13	28	16	6	2	1	75	10	1	59	16	10	7.91	49	1
13	28	16	6	2	1	75	10	1	59	16	10	609.82	49	13
13	28	16	6	2	1	75	10	1	60	6	1	727.02	49	15
13	28	16	6	2	1	75	10	1	61	6	8	10.71	49	1
13	28	16	6	2	1	75	10	1	61	6	8	721.84	49	15
13	28	16	6	2	1	75	10	1	62	6	3	10.38	49	1
13	28	16	6	2	1	75	10	1	63	6	6	39.58	49	1
13	28	16	6	2	1	75	10	1	63	6	6	639.77	49	13
13	28	16	6	2	1	75	10	1	64	6	5	9.77	49	1
13	28	16	6	2	1	75	10	1	64	6	5	627.66	49	13
13	28	16	6	2	1	75	10	1	65	6	7	711.27	49	15
13	28	16	6	2	1	75	10	1	66	6	4	7.41	49	1
13	28	16	6	2	1	75	10	1	67	6	7	60.24	49	2
13	28	16	6	2	1	75	10	1	67	6	7	779.78	49	16
13	28	16	6	2	1	75	10	1	68	6	4	7.64	49	1
13	28	16	6	2	1	75	10	1	69	6	10	96.15	49	2
13	28	16	6	2	1	75	10	1	70	6	2	86.41	49	2
13	28	16	6	2	1	75	10	1	71	6	1	19	49	1
13	28	16	6	2	1	75	10	1	72	6	9	17.83	49	1
13	28	16	6	2	1	75	10	1	73	6	5	112.44	49	3
13	28	16	6	2	1	75	10	1	74	6	6	36.29	49	1
13	28	16	6	2	1	75	10	1	75	6	3	9.85	49	1
13	28	16	6	2	1	75	10	1	76	6	8	8.25	49	1
13	28	16	6	2	1	75	10	1	76	6	8	712.4	49	15
13	28	16	6	2	1	75	10	1	77	6	5	7.65	49	1
13	28	16	6	2	1	75	10	1	77	6	5	638.78	49	13
13	28	16	6	2	1	75	10	1	78	16	9	0	-1	16
13	28	16	6	2	1	75	10	1	79	16	6	0	-1	16
13	28	16	6	2	1	75	10	1	80	16	3	0	-1	16
13	28	16	6	2	1	75	10	1	81	16	8	788.39	49	16
13	28	16	6	2	1	75	10	1	82	6	4	8.08	49	1
13	28	16	6	2	1	75	10	1	82	6	4	714.87	49	15
13	28	16	6	2	1	75	10	1	83	16	7	9.88	49	1
13	28	16	6	2	1	75	10	1	83	16	7	658.23	49	14
13	28	16	6	2	1	75	10	1	84	6	10	10.34	49	1
13	28	16	6	2	1	75	10	1	84	6	10	761.67	49	16
13	28	16	6	2	1	75	10	1	85	6	2	10.12	49	1
13	28	16	6	2	1	75	10	1	85	6	2	762.45	49	16
13	28	16	6	2	1	75	10	1	86	6	9	10.68	49	1
13	28	16	6	2	1	75	10	1	86	6	9	687.82	49	14
13	28	16	6	2	1	75	10	1	87	6	7	13.01	49	1
13	28	16	6	2	1	75	10	1	87	6	7	612.83	49	13
13	28	16	6	2	1	75	10	1	88	6	8	614.88	49	13
13	28	16	6	2	1	75	10	1	89	6	6	575.16	49	12
13	28	16	6	2	1	75	10	1	90	6	3	541.08	49	11
13	28	16	6	2	1	75	10	1	90	6	3	759.5	49	16
13	28	16	6	2	1	75	10	1	91	6	1	585.69	49	12
13	28	16	6	2	1	75	10	1	92	6	7	586.53	49	12
13	28	16	6	2	1	75	10	1	93	16	9	558.71	49	12
13	28	16	6	2	1	75	10	1	94	6	5	607.05	49	13
13	28	16	6	2	1	75	10	1	95	6	2	544	49	11
13	28	16	6	2	1	75	10	1	96	6	1	0	-1	16
13	28	16	6	2	1	75	10	1	97	6	9	64.43	49	2
13	28	16	6	2	1	75	10	1	98	16	2	24.21	49	1
13	28	16	6	2	1	75	10	1	99	6	4	34.41	49	1
13	28	16	6	2	1	75	10	1	99	6	4	710.37	49	15
13	28	16	6	2	1	75	10	1	100	16	4	9.05	49	1
13	28	16	6	2	1	75	10	1	100	16	4	636.71	49	13
13	28	16	6	2	1	75	10	1	101	6	10	8.35	49	1
13	28	16	6	2	1	75	10	1	102	6	3	8.39	49	1
13	28	16	6	2	1	75	10	1	102	6	3	680.64	49	14
13	28	16	6	2	1	75	10	1	103	6	6	8.15	49	1
13	28	16	6	2	1	75	10	1	103	6	6	557.74	49	12
13	28	16	6	2	1	75	10	1	104	6	8	491.26	49	10
13	28	16	6	2	1	75	10	1	105	6	5	669.48	49	14
13	28	16	6	2	1	75	10	1	106	6	9	7.59	49	1
13	28	16	6	2	1	75	10	1	106	6	9	683.24	49	14
13	28	16	6	2	1	75	10	1	107	16	10	7.96	49	1
13	28	16	6	2	1	75	10	1	108	6	4	687.94	49	14
13	28	16	6	2	1	75	10	1	109	16	1	11.9	49	1
13	28	16	6	2	1	75	10	1	109	16	1	660.7	49	14
13	28	16	6	2	1	75	10	1	110	6	2	10.3	49	1
13	28	16	6	2	1	75	10	1	111	6	10	266.88	49	6
13	28	16	6	2	1	75	10	1	112	6	6	30.04	49	1
13	28	16	6	2	1	75	10	1	112	6	6	710.86	49	15
13	28	16	6	2	1	75	10	1	113	16	5	9.01	49	1
13	28	16	6	2	1	75	10	1	114	6	3	708.7	49	15
13	28	16	6	2	1	75	10	1	115	6	7	10.44	49	1
13	28	16	6	2	1	75	10	1	115	6	7	760.43	49	16
13	28	16	6	2	1	75	10	1	116	16	3	7.84	49	1
13	28	16	6	2	1	75	10	1	116	16	3	723.48	49	15
13	28	16	6	2	1	75	10	1	117	16	6	7.79	49	1
13	28	16	6	2	1	75	10	1	118	16	8	0	-1	16
13	28	16	6	2	1	75	10	1	119	6	8	734.88	49	15
13	28	16	6	2	1	75	10	1	120	6	1	11.46	49	1
13	28	16	6	2	1	75	10	1	120	6	1	735.03	49	15
13	28	16	6	2	1	75	10	1	121	16	5	11.46	49	1
13	28	16	6	2	1	75	10	1	122	6	5	641.29	49	13
13	28	16	6	2	1	75	10	1	123	6	2	13.86	49	1
13	28	16	6	2	1	75	10	1	123	6	2	661.03	49	14
13	28	16	6	2	1	75	10	1	124	16	4	10.47	49	1
13	28	16	6	2	1	75	10	1	124	16	4	583.59	49	12
13	28	16	6	2	1	75	10	1	125	16	9	732.94	49	15
13	28	16	6	2	1	75	10	1	126	16	10	9.08	49	1
13	28	16	6	2	1	75	10	1	126	16	10	710.87	49	15
13	28	16	6	2	1	75	10	1	127	6	10	7.96	49	1
13	28	16	6	2	1	75	10	1	127	6	10	679.02	49	14
13	28	16	6	2	1	75	10	1	128	16	2	8.06	49	1
13	28	16	6	2	1	75	10	1	129	16	6	0	-1	16
13	28	16	6	2	1	75	10	1	130	16	8	0	-1	16
13	28	16	6	2	1	75	10	1	131	16	7	0	-1	16
13	28	16	6	2	1	75	10	1	132	6	9	109.68	49	3
13	28	16	6	2	1	75	10	1	132	6	9	723.48	49	15
13	28	16	6	2	1	75	10	1	133	6	4	8.6	49	1
13	28	16	6	2	1	75	10	1	133	6	4	711.57	49	15
13	28	16	6	2	1	75	10	1	134	6	8	12.16	49	1
13	28	16	6	2	1	75	10	1	134	6	8	710.79	49	15
13	28	16	6	2	1	75	10	1	135	6	7	10.29	49	1
13	28	16	6	2	1	75	10	1	135	6	7	567.82	49	12
13	28	16	6	2	1	75	10	1	136	6	3	565.02	49	12
13	28	16	6	2	1	75	10	1	137	6	6	577.17	49	12
13	28	16	6	2	1	75	10	1	138	6	1	466.87	49	10
13	28	16	6	2	1	75	10	1	139	16	3	468.27	49	10
13	28	16	6	2	1	75	10	1	140	16	1	722.94	49	15
13	28	16	6	2	1	75	10	1	141	16	6	7.72	49	1
13	28	16	6	2	1	75	10	1	142	6	7	190.37	49	4
13	28	16	6	2	1	75	10	1	143	6	2	67.31	49	2
13	28	16	6	2	1	75	10	1	144	16	10	73.37	49	2
13	28	16	6	2	1	75	10	1	144	16	10	784.65	49	16
13	28	16	6	2	1	75	10	1	145	6	10	10.18	49	1
13	28	16	6	2	1	75	10	1	146	6	4	11.39	49	1
13	28	16	6	2	1	75	10	1	146	6	4	675.93	49	14
13	28	16	6	2	1	75	10	1	147	6	5	10.81	49	1
13	28	16	6	2	1	75	10	1	147	6	5	640.49	49	13
13	28	16	6	2	1	75	10	1	148	6	1	10.4	49	1
13	28	16	6	2	1	75	10	1	148	6	1	560.19	49	12
13	28	16	6	2	1	75	10	1	149	6	9	512	49	11
13	28	16	6	2	1	75	10	1	149	6	9	713.06	49	15
13	28	16	6	2	1	75	10	1	150	6	6	662.62	49	14
13	28	16	6	2	1	75	10	1	151	6	3	7.94	49	1
13	28	16	6	2	1	75	10	1	151	6	3	657.8	49	14
13	28	16	6	2	1	75	10	1	152	6	8	7.62	49	1
13	28	16	6	2	1	75	10	1	153	6	7	57.51	49	2
13	28	16	6	2	1	75	10	1	153	6	7	757.6	49	16
13	28	16	6	2	1	75	10	1	154	6	9	7.88	49	1
13	28	16	6	2	1	75	10	1	154	6	9	778.32	49	16
13	28	16	6	2	1	75	10	1	155	6	4	7.54	49	1
13	28	16	6	2	1	75	10	1	155	6	4	771.11	49	16
13	28	16	6	2	1	75	10	1	156	6	2	8	49	1
13	28	16	6	2	1	75	10	1	156	6	2	732.44	49	15
13	28	16	6	2	1	75	10	1	157	6	10	8.24	49	1
13	28	16	6	2	1	75	10	1	157	6	10	794.4	49	16
13	28	16	6	2	1	75	10	1	158	6	5	10.52	49	1
13	28	16	6	2	1	75	10	1	158	6	5	676.52	49	14
13	28	16	6	2	1	75	10	1	159	6	1	10.68	49	1
13	28	16	6	2	1	75	10	1	159	6	1	664.38	49	14
13	28	16	6	2	1	75	10	1	160	6	3	9.59	49	1
13	28	16	6	2	1	75	10	1	160	6	3	722.15	49	15
13	28	16	6	2	1	75	10	1	161	16	4	12.52	49	1
13	28	16	6	2	1	75	10	1	162	6	6	781.77	49	16
13	28	16	6	2	1	75	10	1	163	16	8	9.75	49	1
13	28	16	6	2	1	75	10	1	164	6	8	0	-1	16
13	28	16	6	2	1	75	10	1	165	6	6	57.71	49	2
13	28	16	6	2	1	75	10	1	165	6	6	259.66	49	6
13	28	16	6	2	1	75	10	1	166	16	7	79.66	49	2
13	28	16	6	2	1	75	10	1	167	6	4	797.2	49	16
13	28	16	6	2	1	75	10	1	168	6	5	7.41	49	1
13	28	16	6	2	1	75	10	1	168	6	5	660.34	49	14
13	28	16	6	2	1	75	10	1	169	6	10	8.18	49	1
13	28	16	6	2	1	75	10	1	169	6	10	633.87	49	13
13	28	16	6	2	1	75	10	1	170	6	9	8.65	49	1
13	28	16	6	2	1	75	10	1	170	6	9	643.21	49	13
13	28	16	6	2	1	75	10	1	171	6	7	8.91	49	1
13	28	16	6	2	1	75	10	1	171	6	7	675.18	49	14
13	28	16	6	2	1	75	10	1	172	16	5	10.32	49	1
13	28	16	6	2	1	75	10	1	172	16	5	710.53	49	15
13	28	16	6	2	1	75	10	1	173	6	2	10.27	49	1
13	28	16	6	2	1	75	10	1	173	6	2	722.61	49	15
13	28	16	6	2	1	75	10	1	174	16	2	10.26	49	1
13	28	16	6	2	1	75	10	1	174	16	2	665.68	49	14
13	28	16	6	2	1	75	10	1	175	6	1	9.67	49	1
13	28	16	6	2	1	75	10	1	175	6	1	670.83	49	14
13	28	16	6	2	1	75	10	1	176	6	8	9.39	49	1
13	28	16	6	2	1	75	10	1	176	6	8	786.66	49	16
13	28	16	6	2	1	75	10	1	177	6	3	8.24	49	1
13	28	16	6	2	1	75	10	1	177	6	3	760.71	49	16
13	28	16	6	2	1	75	10	1	178	6	5	14.73	49	1
13	28	16	6	2	1	75	10	1	178	6	5	688.57	49	14
13	28	16	6	2	1	75	10	1	179	6	4	11.05	49	1
13	28	16	6	2	1	75	10	1	179	6	4	678.06	49	14
13	28	16	6	2	1	75	10	1	180	6	2	7.65	49	1
13	28	16	6	2	1	75	10	1	180	6	2	725.7	49	15
13	28	16	6	2	1	75	10	1	181	6	10	7.22	49	1
13	28	16	6	2	1	75	10	1	181	6	10	657.39	49	14
13	28	16	6	2	1	75	10	1	182	6	9	10.02	49	1
13	28	16	6	2	1	75	10	1	182	6	9	663.96	49	14
13	28	16	6	2	1	75	10	1	183	6	6	8.35	49	1
13	28	16	6	2	1	75	10	1	183	6	6	628.45	49	13
13	28	16	6	2	1	75	10	1	184	16	9	13.24	49	1
13	28	16	6	2	1	75	10	1	184	16	9	661.95	49	14
13	28	16	6	2	1	75	10	1	185	16	1	10.96	49	1
13	28	16	6	2	1	75	10	1	186	6	8	0	-1	16
13	28	16	6	2	1	75	10	1	187	6	7	112.15	49	3
13	28	16	6	2	1	75	10	1	188	6	3	59.54	49	2
13	28	16	6	2	1	75	10	1	189	6	1	171.64	49	4
13	28	16	6	2	1	75	10	1	190	6	6	111.37	49	3
13	28	16	6	2	1	75	10	1	191	16	3	77.1	49	2
13	28	16	6	2	1	75	10	1	192	6	4	7.79	49	1
13	28	16	6	2	1	75	10	1	193	6	1	59.35	49	2
13	28	16	6	2	1	75	10	1	193	6	1	766.84	49	16
13	28	16	6	2	1	75	10	1	194	6	2	7.78	49	1
13	28	16	6	2	1	75	10	1	195	16	6	379.46	49	8
13	28	16	6	2	1	75	10	1	196	6	5	685.47	49	14
13	28	16	6	2	1	75	10	1	197	6	9	10.7	49	1
13	28	16	6	2	1	75	10	1	197	6	9	757.82	49	16
13	28	16	6	2	1	75	10	1	198	16	8	12.83	49	1
13	28	16	6	2	1	75	10	1	199	16	10	0	-1	16
13	28	16	6	2	1	75	10	1	200	6	10	0	-1	16
13	28	16	6	2	1	75	10	1	201	6	7	108.21	49	3
13	28	16	6	2	1	75	10	1	201	6	7	310.61	49	7
13	28	16	6	2	1	75	10	1	202	6	8	22.87	49	1
13	28	16	6	2	1	75	10	1	203	16	2	21.6	49	1
13	28	16	6	2	1	75	10	1	203	16	2	759.45	49	16
13	28	16	6	2	1	75	10	1	204	6	3	7.36	49	1
13	28	16	6	2	1	75	10	1	205	16	7	36.82	49	1
13	28	16	6	2	1	75	10	1	205	16	7	724.9	49	15
13	28	16	6	2	1	75	10	1	206	6	7	7.48	49	1
13	28	16	6	2	1	75	10	1	206	6	7	720.64	49	15
13	28	16	6	2	1	75	10	1	207	6	1	7.79	49	1
13	28	16	6	2	1	75	10	1	207	6	1	728.02	49	15
13	28	16	6	2	1	75	10	1	208	6	5	9.72	49	1
13	28	16	6	2	1	75	10	1	209	16	1	60.41	49	2
13	28	16	6	2	1	75	10	1	210	6	10	213.21	49	5
13	28	16	6	2	1	75	10	1	211	6	4	460.64	49	10
13	28	16	6	2	1	75	10	1	212	16	4	688.62	49	14
13	28	16	6	2	1	75	10	1	213	6	2	9.67	49	1
13	28	16	6	2	1	75	10	1	213	6	2	727.83	49	15
13	28	16	6	2	1	75	10	1	214	6	9	8.9	49	1
13	28	16	6	2	1	75	10	1	214	6	9	740.83	49	15
13	28	16	6	2	1	75	10	1	215	16	5	10.24	49	1
13	28	16	6	2	1	75	10	1	215	16	5	726.89	49	15
13	28	16	6	2	1	75	10	1	216	6	3	7.81	49	1
13	28	16	6	2	1	75	10	1	216	6	3	710.87	49	15
13	28	16	6	2	1	75	10	1	217	6	6	7.75	49	1
13	28	16	6	2	1	75	10	1	217	6	6	633.1	49	13
13	28	16	6	2	1	75	10	1	218	6	8	7.86	49	1
13	28	16	6	2	1	75	10	1	218	6	8	659.91	49	14
13	28	16	6	2	1	75	10	1	219	6	6	7.62	49	1
13	28	16	6	2	1	75	10	1	219	6	6	641.51	49	13
13	28	16	6	2	1	75	10	1	220	6	4	608.92	49	13
13	28	16	6	2	1	75	10	1	221	16	9	0	-1	16
13	28	16	6	2	1	75	10	1	222	6	9	762.98	49	16
13	28	16	6	2	1	75	10	1	223	6	10	11.27	49	1
13	28	16	6	2	1	75	10	1	223	6	10	713.91	49	15
13	28	16	6	2	1	75	10	1	224	6	1	9.53	49	1
13	28	16	6	2	1	75	10	1	224	6	1	717.32	49	15
13	28	16	6	2	1	75	10	1	225	16	3	8.74	49	1
13	28	16	6	2	1	75	10	1	225	16	3	682.3	49	14
13	28	16	6	2	1	75	10	1	226	6	2	8.77	49	1
13	28	16	6	2	1	75	10	1	226	6	2	686.7	49	14
13	28	16	6	2	1	75	10	1	227	6	7	10.42	49	1
13	28	16	6	2	1	75	10	1	227	6	7	666.43	49	14
13	28	16	6	2	1	75	10	1	228	6	5	10.27	49	1
13	28	16	6	2	1	75	10	1	228	6	5	643.37	49	13
13	28	16	6	2	1	75	10	1	229	6	8	7.56	49	1
13	28	16	6	2	1	75	10	1	229	6	8	688.08	49	14
13	28	16	6	2	1	75	10	1	230	6	3	7.95	49	1
13	28	16	6	2	1	75	10	1	230	6	3	682.29	49	14
13	28	16	6	2	1	75	10	1	231	6	6	9.83	49	1
13	28	16	6	2	1	75	10	1	231	6	6	610.3	49	13
13	28	16	6	2	1	75	10	1	232	16	6	616.66	49	13
13	28	16	6	2	1	75	10	1	233	16	7	626.77	49	13
13	28	16	6	2	1	75	10	1	234	6	5	10.55	49	1
13	28	16	6	2	1	75	10	1	235	6	7	131.81	49	3
13	28	16	6	2	1	75	10	1	236	16	8	38.65	49	1
13	28	16	6	2	1	75	10	1	236	16	8	730.33	49	15
13	28	16	6	2	1	75	10	1	237	6	1	9.49	49	1
13	28	16	6	2	1	75	10	1	237	6	1	660.87	49	14
13	28	16	6	2	1	75	10	1	238	6	2	7.67	49	1
13	28	16	6	2	1	75	10	1	238	6	2	623.13	49	13
13	28	16	6	2	1	75	10	1	239	6	8	7.72	49	1
13	28	16	6	2	1	75	10	1	239	6	8	611.41	49	13
13	28	16	6	2	1	75	10	1	240	6	4	607.31	49	13
13	28	16	6	2	1	75	10	1	241	6	9	642.89	49	13
13	28	16	6	2	1	75	10	1	242	6	10	7.86	49	1
13	28	16	6	2	1	75	10	1	242	6	10	630.73	49	13
13	28	16	6	2	1	75	10	1	243	6	3	7.71	49	1
13	28	16	6	2	1	75	10	1	243	6	3	665.63	49	14
13	28	16	6	2	1	75	10	1	244	16	5	7.98	49	1
13	28	16	6	2	1	75	10	1	245	6	7	659.96	49	14
13	28	16	6	2	1	75	10	1	246	6	10	11.13	49	1
13	28	16	6	2	1	75	10	1	246	6	10	662.37	49	14
13	28	16	6	2	1	75	10	1	247	6	4	10.31	49	1
13	28	16	6	2	1	75	10	1	247	6	4	728.68	49	15
13	28	16	6	2	1	75	10	1	248	6	2	10.57	49	1
13	28	16	6	2	1	75	10	1	248	6	2	773.74	49	16
13	28	16	6	2	1	75	10	1	249	6	5	9.57	49	1
13	28	16	6	2	1	75	10	1	249	6	5	666.6	49	14
13	28	16	6	2	1	75	10	1	250	16	2	9.11	49	1
13	28	16	6	2	1	75	10	1	251	16	1	0	-1	16
13	28	16	6	2	1	75	10	1	252	6	1	680.07	49	14
13	28	16	6	2	1	75	10	1	253	16	4	7.53	49	1
13	28	16	6	2	1	75	10	1	254	6	9	615.7	49	13
13	28	16	6	2	1	75	10	1	255	6	6	8.61	49	1
13	28	16	6	2	1	75	10	1	255	6	6	609.93	49	13
13	28	16	6	2	1	75	10	1	256	6	3	7.78	49	1
13	28	16	6	2	1	75	10	1	256	6	3	626.41	49	13
13	28	16	6	2	1	75	10	1	257	6	8	10.43	49	1
13	28	16	6	2	1	75	10	1	258	6	6	60.44	49	2
13	28	16	6	2	1	75	10	1	258	6	6	722.05	49	15
13	28	16	6	2	1	75	10	1	259	6	2	10.76	49	1
13	28	16	6	2	1	75	10	1	259	6	2	711.98	49	15
13	28	16	6	2	1	75	10	1	260	6	7	10.67	49	1
13	28	16	6	2	1	75	10	1	260	6	7	665.77	49	14
13	28	16	6	2	1	75	10	1	261	16	9	9.32	49	1
13	28	16	6	2	1	75	10	1	262	6	8	36.6	49	1
13	28	16	6	2	1	75	10	1	262	6	8	645.64	49	13
13	28	16	6	2	1	75	10	1	263	6	5	7.67	49	1
13	28	16	6	2	1	75	10	1	263	6	5	631.01	49	13
13	28	16	6	2	1	75	10	1	264	6	9	7.89	49	1
13	28	16	6	2	1	75	10	1	264	6	9	640.89	49	13
13	28	16	6	2	1	75	10	1	265	16	10	7.85	49	1
13	28	16	6	2	1	75	10	1	266	6	1	661.57	49	14
13	28	16	6	2	1	75	10	1	267	6	4	7.72	49	1
13	28	16	6	2	1	75	10	1	267	6	4	620.18	49	13
13	28	16	6	2	1	75	10	1	268	6	10	7.82	49	1
13	28	16	6	2	1	75	10	1	268	6	10	640.77	49	13
13	28	16	6	2	1	75	10	1	269	16	3	8.84	49	1
13	28	16	6	2	1	75	10	1	269	16	3	669.22	49	14
13	28	16	6	2	1	75	10	1	270	6	3	12.57	49	1
13	28	16	6	2	1	75	10	1	270	6	3	587.89	49	12
13	28	16	6	2	1	75	10	1	271	16	7	0	-1	16
13	28	16	6	2	1	75	10	1	272	6	6	614.88	49	13
13	28	16	6	2	1	75	10	1	273	16	1	659.19	49	14
13	28	16	6	2	1	75	10	1	274	6	8	9.38	49	1
13	28	16	6	2	1	75	10	1	275	6	4	57.82	49	2
13	28	16	6	2	1	75	10	1	275	6	4	645.42	49	13
13	28	16	6	2	1	75	10	1	276	16	10	10.22	49	1
13	28	16	6	2	1	75	10	1	277	6	10	692.19	49	14
13	28	16	6	2	1	75	10	1	278	6	2	8.61	49	1
13	28	16	6	2	1	75	10	1	278	6	2	684.84	49	14
13	28	16	6	2	1	75	10	1	279	6	9	7.62	49	1
13	28	16	6	2	1	75	10	1	279	6	9	673.65	49	14
13	28	16	6	2	1	75	10	1	280	6	1	7.75	49	1
13	28	16	6	2	1	75	10	1	280	6	1	740.86	49	15
13	28	16	6	2	1	75	10	1	281	6	5	10.47	49	1
13	28	16	6	2	1	75	10	1	281	6	5	685.46	49	14
13	28	16	6	2	1	75	10	1	282	6	7	10.63	49	1
13	28	16	6	2	1	75	10	1	283	6	3	10.25	49	1
13	28	16	6	2	1	75	10	1	283	6	3	710.7	49	15
13	28	16	6	2	1	75	10	1	284	6	2	12.93	49	1
13	28	16	6	2	1	75	10	1	284	6	2	787.92	49	16
13	28	16	6	2	1	75	10	1	285	6	10	10.32	49	1
13	28	16	6	2	1	75	10	1	285	6	10	663.69	49	14
13	28	16	6	2	1	75	10	1	286	6	9	9.07	49	1
13	28	16	6	2	1	75	10	1	286	6	9	662.18	49	14
13	28	16	6	2	1	75	10	1	287	6	8	8.57	49	1
13	28	16	6	2	1	75	10	1	287	6	8	558.21	49	12
13	28	16	6	2	1	75	10	1	288	16	9	470.53	49	10
13	28	16	6	2	1	75	10	1	289	6	5	559.2	49	12
13	28	16	6	2	1	75	10	1	289	6	5	759.32	49	16
13	28	16	6	2	1	75	10	1	290	6	1	587.36	49	12
13	28	16	6	2	1	75	10	1	291	6	7	683.38	49	14
13	28	16	6	2	1	75	10	1	292	16	2	7.4	49	1
13	28	16	6	2	1	75	10	1	293	6	3	589.34	49	12
13	28	16	6	2	1	75	10	1	294	6	6	596.01	49	12
13	28	16	6	2	1	75	10	1	295	6	4	626.55	49	13
13	28	16	6	2	1	75	10	1	296	16	5	12.23	49	1
13	28	16	6	2	1	75	10	1	297	16	4	0	-1	16
13	28	16	6	2	1	75	10	1	298	6	2	711.19	49	15
13	28	16	6	2	1	75	10	1	299	6	9	9.25	49	1
13	28	16	6	2	1	75	10	1	299	6	9	723.42	49	15
13	28	16	6	2	1	75	10	1	300	6	10	7.88	49	1
13	28	16	6	2	1	75	10	1	300	6	10	787.37	49	16
13	28	16	6	2	1	75	10	1	301	16	6	7.91	49	1
13	28	16	6	2	1	75	10	1	302	6	1	24.44	49	1
13	28	16	6	2	1	75	10	1	302	6	1	692.77	49	14
13	28	16	6	2	1	75	10	1	303	6	8	7.49	49	1
13	28	16	6	2	1	75	10	1	303	6	8	759.75	49	16
13	28	16	6	2	1	75	10	1	304	16	3	7.67	49	1
13	28	16	6	2	1	75	10	1	305	6	6	38.41	49	1
13	28	16	6	2	1	75	10	1	305	6	6	666.95	49	14
13	28	16	6	2	1	75	10	1	306	16	8	9.07	49	1
13	28	16	6	2	1	75	10	1	307	6	7	678.34	49	14
13	28	16	6	2	1	75	10	1	308	6	3	10.14	49	1
13	28	16	6	2	1	75	10	1	308	6	3	789.85	49	16
13	28	16	6	2	1	75	10	1	309	16	7	11.1	49	1
13	28	16	6	2	1	75	10	1	310	16	1	766	49	16
13	28	16	6	2	1	75	10	1	311	6	5	11.73	49	1
13	28	16	6	2	1	75	10	1	311	6	5	715.28	49	15
13	28	16	6	2	1	75	10	1	312	6	4	7.57	49	1
13	28	16	6	2	1	75	10	1	312	6	4	709.75	49	15
13	28	16	6	2	1	75	10	1	313	6	7	7.62	49	1
13	28	16	6	2	1	75	10	1	313	6	7	725.67	49	15
13	28	16	6	2	1	75	10	1	314	16	9	8.06	49	1
13	28	16	6	2	1	75	10	1	315	6	9	616.82	49	13
13	28	16	6	2	1	75	10	1	316	16	4	10.34	49	1
13	28	16	6	2	1	75	10	1	317	6	2	761.2	49	16
13	28	16	6	2	1	75	10	1	318	6	4	8.4	49	1
13	28	16	6	2	1	75	10	1	318	6	4	659.82	49	14
13	28	16	6	2	1	75	10	1	319	16	5	13.06	49	1
13	28	16	6	2	1	75	10	1	320	6	5	619.53	49	13
13	28	16	6	2	1	75	10	1	321	6	1	10.39	49	1
13	28	16	6	2	1	75	10	1	321	6	1	660.46	49	14
13	28	16	6	2	1	75	10	1	322	6	10	10.2	49	1
13	28	16	6	2	1	75	10	1	322	6	10	692.69	49	14
13	28	16	6	2	1	75	10	1	323	16	10	9.29	49	1
13	28	16	6	2	1	75	10	1	323	16	10	684.47	49	14
13	28	16	6	2	1	75	10	1	324	16	2	7.52	49	1
13	28	16	6	2	1	75	10	1	325	6	6	125.69	49	3
13	28	16	6	2	1	75	10	1	325	6	6	790.95	49	16
13	28	16	6	2	1	75	10	1	326	6	3	10.49	49	1
13	28	16	6	2	1	75	10	1	326	6	3	725.62	49	15
13	28	16	6	2	1	75	10	1	327	6	8	8.95	49	1
13	28	16	6	2	1	75	10	1	327	6	8	675.19	49	14
13	28	16	6	2	1	75	10	1	328	6	5	7.45	49	1
13	28	16	6	2	1	75	10	1	328	6	5	594.75	49	12
13	28	16	6	2	1	75	10	1	329	6	10	595.77	49	12
13	28	16	6	2	1	75	10	1	330	6	4	563.98	49	12
13	28	16	6	2	1	75	10	1	331	6	9	593.61	49	12
13	28	16	6	2	1	75	10	1	332	6	2	467.46	49	10
13	28	16	6	2	1	75	10	1	333	6	8	638.31	49	13
13	28	16	6	2	1	75	10	1	334	6	7	10.52	49	1
13	28	16	6	2	1	75	10	1	334	6	7	578.34	49	12
13	28	16	6	2	1	75	10	1	335	6	3	512.87	49	11
13	28	16	6	2	1	75	10	1	336	6	6	561.33	49	12
13	28	16	6	2	1	75	10	1	337	6	1	671.04	49	14
13	28	16	6	2	1	75	10	1	338	6	7	7.79	49	1
13	28	16	6	2	1	75	10	1	338	6	7	635.56	49	13
13	28	16	6	2	1	75	10	1	339	6	9	8.07	49	1
13	28	16	6	2	1	75	10	1	339	6	9	660.08	49	14
13	28	16	6	2	1	75	10	1	340	6	4	11.72	49	1
13	28	16	6	2	1	75	10	1	340	6	4	708.52	49	15
13	28	16	6	2	1	75	10	1	341	6	10	7.71	49	1
13	28	16	6	2	1	75	10	1	341	6	10	710.23	49	15
13	28	16	6	2	1	75	10	1	342	6	5	7.48	49	1
13	28	16	6	2	1	75	10	1	342	6	5	710.71	49	15
13	28	16	6	2	1	75	10	1	343	16	6	8.79	49	1
13	28	16	6	2	1	75	10	1	344	16	3	0	-1	16
13	28	16	6	2	1	75	10	1	345	16	8	0	-1	16
13	28	16	6	2	1	75	10	1	346	6	2	392.83	49	8
13	28	16	6	2	1	75	10	1	347	16	2	717.92	49	15
13	28	16	6	2	1	75	10	1	348	6	1	10.24	49	1
13	28	16	6	2	1	75	10	1	348	6	1	638.95	49	13
13	28	16	6	2	1	75	10	1	349	6	3	9.07	49	1
13	28	16	6	2	1	75	10	1	349	6	3	641.97	49	13
13	28	16	6	2	1	75	10	1	350	6	6	11.35	49	1
13	28	16	6	2	1	75	10	1	350	6	6	660.72	49	14
13	28	16	6	2	1	75	10	1	351	6	8	7.7	49	1
13	28	16	6	2	1	75	10	1	351	6	8	775.51	49	16
13	28	16	6	2	1	75	10	1	352	6	2	7.94	49	1
13	28	16	6	2	1	75	10	1	352	6	2	788.11	49	16
13	28	16	6	2	1	75	10	1	353	6	9	7.81	49	1
13	28	16	6	2	1	75	10	1	353	6	9	628.34	49	13
13	28	16	6	2	1	75	10	1	354	6	10	7.33	49	1
13	28	16	6	2	1	75	10	1	354	6	10	657.44	49	14
13	28	16	6	2	1	75	10	1	355	6	7	619.7	49	13
13	28	16	6	2	1	75	10	1	356	16	9	10.52	49	1
13	28	16	6	2	1	75	10	1	357	6	1	543.9	49	11
13	28	16	6	2	1	75	10	1	357	6	1	760.65	49	16
13	28	16	6	2	1	75	10	1	358	6	6	634.25	49	13
13	28	16	6	2	1	75	10	1	359	6	5	10.81	49	1
13	28	16	6	2	1	75	10	1	359	6	5	666.73	49	14
13	28	16	6	2	1	75	10	1	360	6	8	61.26	49	2
13	28	16	6	2	1	75	10	1	361	6	3	17.06	49	1
13	28	16	6	2	1	75	10	1	361	6	3	762.21	49	16
13	28	16	6	2	1	75	10	1	362	6	4	9.86	49	1
13	28	16	6	2	1	75	10	1	362	6	4	781.39	49	16
13	28	16	6	2	1	75	10	1	363	6	5	8.28	49	1
13	28	16	6	2	1	75	10	1	363	6	5	784.57	49	16
13	28	16	6	2	1	75	10	1	364	6	2	10.87	49	1
13	28	16	6	2	1	75	10	1	365	16	10	82.24	49	2
13	28	16	6	2	1	75	10	1	366	6	10	19.7	49	1
13	28	16	6	2	1	75	10	1	367	6	9	40.72	49	1
13	28	16	6	2	1	75	10	1	367	6	9	259.3	49	6
13	28	16	6	2	1	75	10	1	368	6	4	29.99	49	1
13	28	16	6	2	1	75	10	1	369	6	3	7.93	49	1
13	28	16	6	2	1	75	10	1	369	6	3	208.44	49	5
13	28	16	6	2	1	75	10	1	370	6	8	60.32	49	2
13	28	16	6	2	1	75	10	1	371	6	7	0	-1	16
13	28	16	6	2	1	75	10	1	372	6	6	111.57	49	3
13	28	16	6	2	1	75	10	1	372	6	6	768.55	49	16
13	28	16	6	2	1	75	10	1	373	6	1	10.33	49	1
13	28	16	6	2	1	75	10	1	373	6	1	779.59	49	16
13	28	16	6	2	1	75	10	1	374	6	2	9.06	49	1
13	28	16	6	2	1	75	10	1	375	6	10	44.07	49	1
13	28	16	6	2	1	75	10	1	375	6	10	669.22	49	14
13	28	16	6	2	1	75	10	1	376	6	9	7.81	49	1
13	28	16	6	2	1	75	10	1	376	6	9	616.63	49	13
13	28	16	6	2	1	75	10	1	377	6	7	7.73	49	1
13	28	16	6	2	1	75	10	1	377	6	7	627.5	49	13
13	28	16	6	2	1	75	10	1	378	16	7	8.26	49	1
13	28	16	6	2	1	75	10	1	379	16	3	0	-1	16
13	28	16	6	2	1	75	10	1	380	16	5	0	-1	16
13	28	16	6	2	1	75	10	1	381	6	5	57.27	49	2
13	28	16	6	2	1	75	10	1	381	6	5	715.84	49	15
13	28	16	6	2	1	75	10	1	382	16	6	9.27	49	1
13	28	16	6	2	1	75	10	1	382	16	6	684.16	49	14
13	28	16	6	2	1	75	10	1	383	6	8	10.56	49	1
13	28	16	6	2	1	75	10	1	384	6	1	91.58	49	2
13	28	16	6	2	1	75	10	1	385	6	6	27.48	49	1
13	28	16	6	2	1	75	10	1	385	6	6	688.13	49	14
13	28	16	6	2	1	75	10	1	386	6	3	10.49	49	1
13	28	16	6	2	1	75	10	1	386	6	3	627.85	49	13
13	28	16	6	2	1	75	10	1	387	16	8	9.05	49	1
13	28	16	6	2	1	75	10	1	388	6	4	711.15	49	15
13	28	16	6	2	1	75	10	1	389	6	7	8.13	49	1
13	28	16	6	2	1	75	10	1	390	6	1	27.18	49	1
13	28	16	6	2	1	75	10	1	390	6	1	745.17	49	15
13	28	16	6	2	1	75	10	1	391	6	2	7.57	49	1
13	28	16	6	2	1	75	10	1	391	6	2	679.97	49	14
13	28	16	6	2	1	75	10	1	392	6	5	7.31	49	1
13	28	16	6	2	1	75	10	1	392	6	5	615.36	49	13
13	28	16	6	2	1	75	10	1	393	16	1	718.86	49	15
13	28	16	6	2	1	75	10	1	394	6	10	7.59	49	1
13	28	16	6	2	1	75	10	1	395	16	4	160.48	49	4
13	28	16	6	2	1	75	10	1	396	6	4	0	-1	16
13	28	16	6	2	1	75	10	1	397	6	9	60.24	49	2
13	28	16	6	2	1	75	10	1	398	6	6	26.54	49	1
13	28	16	6	2	1	75	10	1	398	6	6	681.31	49	14
13	28	16	6	2	1	75	10	1	399	6	3	9.97	49	1
13	28	16	6	2	1	75	10	1	399	6	3	620.82	49	13
13	28	16	6	2	1	75	10	1	400	6	8	524.63	49	11
13	28	16	6	2	1	75	10	1	401	16	5	509.19	49	11
13	28	16	6	2	1	75	10	1	402	6	6	595.12	49	12
13	28	16	6	2	1	75	10	1	403	16	9	660.27	49	14
13	28	16	6	2	1	75	10	1	404	6	10	7.14	49	1
13	28	16	6	2	1	75	10	1	404	6	10	709.68	49	15
13	28	16	6	2	1	75	10	1	405	6	9	11.78	49	1
13	28	16	6	2	1	75	10	1	405	6	9	661.24	49	14
13	28	16	6	2	1	75	10	1	406	16	2	7.51	49	1
13	28	16	6	2	1	75	10	1	406	16	2	524.28	49	11
13	28	16	6	2	1	75	10	1	407	16	10	557.65	49	12
13	28	16	6	2	1	75	10	1	408	6	5	578.29	49	12
13	28	16	6	2	1	75	10	1	409	16	4	642.43	49	13
13	28	16	6	2	1	75	10	1	410	16	6	13.13	49	1
13	28	16	6	2	1	75	10	1	411	6	7	61.49	49	2
13	28	16	6	2	1	75	10	1	412	16	7	472.61	49	10
13	28	16	6	2	1	75	10	1	413	6	4	80.1	49	2
13	28	16	6	2	1	75	10	1	413	6	4	658.25	49	14
13	28	16	6	2	1	75	10	1	414	16	8	7.77	49	1
13	28	16	6	2	1	75	10	1	415	6	2	0	-1	16
13	28	16	6	2	1	75	10	1	416	6	1	43.03	49	1
13	28	16	6	2	1	75	10	1	416	6	1	259.53	49	6
13	28	16	6	2	1	75	10	1	417	6	8	14.06	49	1
13	28	16	6	2	1	75	10	1	418	6	3	58.12	49	2
13	28	16	6	2	1	75	10	1	418	6	3	737.08	49	15
13	28	16	6	2	1	75	10	1	419	6	2	7.72	49	1
13	28	16	6	2	1	75	10	1	419	6	2	707.13	49	15
13	28	16	6	2	1	75	10	1	420	6	10	8.13	49	1
13	28	16	6	2	1	75	10	1	420	6	10	622.47	49	13
13	28	16	6	2	1	75	10	1	421	16	3	13.09	49	1
13	28	16	6	2	1	75	10	1	422	6	9	577.58	49	12
13	28	16	6	2	1	75	10	1	423	16	1	0	-1	16
13	28	16	6	2	1	75	10	1	424	6	7	0	-1	16
13	28	16	6	2	1	75	10	1	425	6	6	10.06	49	1
13	28	16	6	2	1	75	10	1	425	6	6	760.52	49	16
13	28	16	6	2	1	75	10	1	426	16	6	11.68	49	1
13	28	16	6	2	1	75	10	1	427	6	5	568.62	49	12
13	28	16	6	2	1	75	10	1	428	16	7	0	-1	16
13	28	16	6	2	1	75	10	1	429	6	8	659.77	49	14
13	28	16	6	2	1	75	10	1	430	6	1	8.19	49	1
13	28	16	6	2	1	75	10	1	431	16	1	61.85	49	2
13	28	16	6	2	1	75	10	1	432	6	3	133.04	49	3
13	28	16	6	2	1	75	10	1	433	6	4	143.71	49	3
13	28	16	6	2	1	75	10	1	434	6	6	33.4	49	1
13	28	16	6	2	1	75	10	1	435	6	1	259.51	49	6
13	28	16	6	2	1	75	10	1	436	6	4	213.01	49	5
13	28	16	6	2	1	75	10	1	436	6	4	773.32	49	16
13	28	16	6	2	1	75	10	1	437	6	10	12.51	49	1
13	28	16	6	2	1	75	10	1	437	6	10	737.04	49	15
13	28	16	6	2	1	75	10	1	438	6	5	10.35	49	1
13	28	16	6	2	1	75	10	1	438	6	5	682.67	49	14
13	28	16	6	2	1	75	10	1	439	16	10	8.99	49	1
13	28	16	6	2	1	75	10	1	440	6	7	683.06	49	14
13	28	16	6	2	1	75	10	1	441	6	2	8.57	49	1
13	28	16	6	2	1	75	10	1	441	6	2	657.57	49	14
13	28	16	6	2	1	75	10	1	442	6	9	7.41	49	1
13	28	16	6	2	1	75	10	1	442	6	9	620.42	49	13
13	28	16	6	2	1	75	10	1	443	6	8	670.57	49	14
13	28	16	6	2	1	75	10	1	444	6	3	7.75	49	1
13	28	16	6	2	1	75	10	1	444	6	3	689.01	49	14
13	28	16	6	2	1	75	10	1	445	6	5	9.68	49	1
13	28	16	6	2	1	75	10	1	445	6	5	680.47	49	14
13	28	16	6	2	1	75	10	1	446	6	4	9.61	49	1
13	28	16	6	2	1	75	10	1	446	6	4	713.52	49	15
13	28	16	6	2	1	75	10	1	447	6	9	11.12	49	1
13	28	16	6	2	1	75	10	1	448	6	2	11.88	49	1
13	28	16	6	2	1	75	10	1	449	6	10	388.48	49	8
13	28	16	6	2	1	75	10	1	450	6	8	63.77	49	2
13	28	16	6	2	1	75	10	1	450	6	8	675.13	49	14
