SubjectNum	Age	Gender	PressedTask	Block Type	Block Repeat Num	Response Rate	Onset	Block	Trial	ImgType	ImgNum	RT	PressedC	FrameC
13	28	16	6	2	1	75	10	1	1	6	5	0	-1	16
13	28	16	6	2	1	75	10	1	2	6	10	0	-1	16
13	28	16	6	2	1	75	10	1	3	6	4	89.21	49	2
13	28	16	6	2	1	75	10	1	4	6	9	12.57	49	1
13	28	16	6	2	1	75	10	1	4	6	9	742.48	49	15
13	28	16	6	2	1	75	10	1	5	16	7	8.05	49	1
13	28	16	6	2	1	75	10	1	6	6	2	0	-1	16
13	28	16	6	2	1	75	10	1	7	6	3	35.28	49	1
13	28	16	6	2	1	75	10	1	7	6	3	763.88	49	16
13	28	16	6	2	1	75	10	1	8	16	9	8.04	49	1
13	28	16	6	2	1	75	10	1	9	6	8	646.38	49	13
13	28	16	6	2	1	75	10	1	10	16	2	10.26	49	1
13	28	16	6	2	1	75	10	1	11	6	7	0	-1	16
13	28	16	6	2	1	75	10	1	12	6	6	25	49	1
13	28	16	6	2	1	75	10	1	12	6	6	782.94	49	16
13	28	16	6	2	1	75	10	1	13	6	1	13.2	49	1
13	28	16	6	2	1	75	10	1	13	6	1	725.3	49	15
13	28	16	6	2	1	75	10	1	14	16	5	10.53	49	1
13	28	16	6	2	1	75	10	1	15	6	5	0	-1	16
13	28	16	6	2	1	75	10	1	16	6	2	10.32	49	1
13	28	16	6	2	1	75	10	1	17	6	4	134.29	49	3
13	28	16	6	2	1	75	10	1	18	6	9	108.16	49	3
13	28	16	6	2	1	75	10	1	19	6	10	42.97	49	1
13	28	16	6	2	1	75	10	1	19	6	10	260.03	49	6
13	28	16	6	2	1	75	10	1	20	16	1	88.17	49	2
13	28	16	6	2	1	75	10	1	21	6	3	0	-1	16
13	28	16	6	2	1	75	10	1	22	16	10	14.96	49	1
13	28	16	6	2	1	75	10	1	23	6	7	764.3	49	16
13	28	16	6	2	1	75	10	1	24	16	4	8.82	49	1
13	28	16	6	2	1	75	10	1	25	6	8	0	-1	16
13	28	16	6	2	1	75	10	1	26	16	3	12.97	49	1
13	28	16	6	2	1	75	10	1	27	6	6	685.15	49	14
13	28	16	6	2	1	75	10	1	28	6	1	9.57	49	1
13	28	16	6	2	1	75	10	1	28	6	1	660.09	49	14
13	28	16	6	2	1	75	10	1	29	6	6	9.05	49	1
13	28	16	6	2	1	75	10	1	29	6	6	661.07	49	14
13	28	16	6	2	1	75	10	1	30	6	1	8.67	49	1
13	28	16	6	2	1	75	10	1	30	6	1	718.06	49	15
13	28	16	6	2	1	75	10	1	31	16	6	7.66	49	1
13	28	16	6	2	1	75	10	1	32	6	9	642.65	49	13
13	28	16	6	2	1	75	10	1	33	6	8	7.7	49	1
13	28	16	6	2	1	75	10	1	33	6	8	738.74	49	15
13	28	16	6	2	1	75	10	1	34	6	10	7.83	49	1
13	28	16	6	2	1	75	10	1	34	6	10	696.03	49	14
13	28	16	6	2	1	75	10	1	35	16	8	7.45	49	1
13	28	16	6	2	1	75	10	1	35	16	8	642.04	49	13
13	28	16	6	2	1	75	10	1	36	6	7	8.21	49	1
13	28	16	6	2	1	75	10	1	36	6	7	788.47	49	16
13	28	16	6	2	1	75	10	1	37	6	4	10.37	49	1
13	28	16	6	2	1	75	10	1	37	6	4	709.76	49	15
13	28	16	6	2	1	75	10	1	38	6	2	9.77	49	1
13	28	16	6	2	1	75	10	1	38	6	2	566.37	49	12
13	28	16	6	2	1	75	10	1	39	6	5	462.27	49	10
13	28	16	6	2	1	75	10	1	40	16	7	528.53	49	11
13	28	16	6	2	1	75	10	1	41	16	4	564.05	49	12
13	28	16	6	2	1	75	10	1	42	6	3	0	-1	16
13	28	16	6	2	1	75	10	1	43	6	7	167.8	49	4
13	28	16	6	2	1	75	10	1	44	6	5	458.63	49	10
13	28	16	6	2	1	75	10	1	45	6	2	696.51	49	14
13	28	16	6	2	1	75	10	1	46	6	1	7.39	49	1
13	28	16	6	2	1	75	10	1	46	6	1	760.86	49	16
13	28	16	6	2	1	75	10	1	47	6	9	9.46	49	1
13	28	16	6	2	1	75	10	1	47	6	9	758.87	49	16
13	28	16	6	2	1	75	10	1	48	6	4	8.67	49	1
13	28	16	6	2	1	75	10	1	48	6	4	711.04	49	15
13	28	16	6	2	1	75	10	1	49	16	5	10.1	49	1
13	28	16	6	2	1	75	10	1	49	16	5	727.78	49	15
13	28	16	6	2	1	75	10	1	50	16	1	11.04	49	1
13	28	16	6	2	1	75	10	1	50	16	1	729.61	49	15
13	28	16	6	2	1	75	10	1	51	6	10	10.56	49	1
13	28	16	6	2	1	75	10	1	51	6	10	762.77	49	16
13	28	16	6	2	1	75	10	1	52	6	6	13.29	49	1
13	28	16	6	2	1	75	10	1	52	6	6	727.03	49	15
13	28	16	6	2	1	75	10	1	53	6	3	8.43	49	1
13	28	16	6	2	1	75	10	1	53	6	3	615.76	49	13
13	28	16	6	2	1	75	10	1	54	6	8	0	-1	16
13	28	16	6	2	1	75	10	1	55	16	2	170.37	49	4
13	28	16	6	2	1	75	10	1	56	6	2	672.43	49	14
13	28	16	6	2	1	75	10	1	57	6	10	11.59	49	1
13	28	16	6	2	1	75	10	1	57	6	10	643.2	49	13
13	28	16	6	2	1	75	10	1	58	6	9	8.15	49	1
13	28	16	6	2	1	75	10	1	58	6	9	624.13	49	13
13	28	16	6	2	1	75	10	1	59	16	10	7.91	49	1
13	28	16	6	2	1	75	10	1	60	6	1	675.83	49	14
13	28	16	6	2	1	75	10	1	61	6	8	10.51	49	1
13	28	16	6	2	1	75	10	1	61	6	8	713.31	49	15
13	28	16	6	2	1	75	10	1	62	6	3	11.83	49	1
13	28	16	6	2	1	75	10	1	62	6	3	710.87	49	15
13	28	16	6	2	1	75	10	1	63	6	6	10.78	49	1
13	28	16	6	2	1	75	10	1	63	6	6	591.17	49	12
13	28	16	6	2	1	75	10	1	64	6	5	610.7	49	13
13	28	16	6	2	1	75	10	1	65	6	7	0	-1	16
13	28	16	6	2	1	75	10	1	66	6	4	132.34	49	3
13	28	16	6	2	1	75	10	1	66	6	4	687.92	49	14
13	28	16	6	2	1	75	10	1	67	6	7	9.92	49	1
13	28	16	6	2	1	75	10	1	67	6	7	657.25	49	14
13	28	16	6	2	1	75	10	1	68	6	4	7.81	49	1
13	28	16	6	2	1	75	10	1	68	6	4	582.2	49	12
13	28	16	6	2	1	75	10	1	69	6	10	707.12	49	15
13	28	16	6	2	1	75	10	1	70	6	2	14.45	49	1
13	28	16	6	2	1	75	10	1	70	6	2	757.6	49	16
13	28	16	6	2	1	75	10	1	71	6	1	7.62	49	1
13	28	16	6	2	1	75	10	1	71	6	1	743.87	49	15
13	28	16	6	2	1	75	10	1	72	6	9	8.6	49	1
13	28	16	6	2	1	75	10	1	72	6	9	709.46	49	15
13	28	16	6	2	1	75	10	1	73	6	5	10.16	49	1
13	28	16	6	2	1	75	10	1	73	6	5	709.43	49	15
13	28	16	6	2	1	75	10	1	74	6	6	10.6	49	1
13	28	16	6	2	1	75	10	1	74	6	6	741.02	49	15
13	28	16	6	2	1	75	10	1	75	6	3	13.18	49	1
13	28	16	6	2	1	75	10	1	75	6	3	763.21	49	16
13	28	16	6	2	1	75	10	1	76	6	8	12.66	49	1
13	28	16	6	2	1	75	10	1	76	6	8	762.7	49	16
13	28	16	6	2	1	75	10	1	77	6	5	11.91	49	1
13	28	16	6	2	1	75	10	1	77	6	5	611.62	49	13
13	28	16	6	2	1	75	10	1	78	16	9	0	-1	16
13	28	16	6	2	1	75	10	1	79	16	6	0	-1	16
13	28	16	6	2	1	75	10	1	80	16	3	8.06	49	1
13	28	16	6	2	1	75	10	1	81	16	8	476.19	49	10
13	28	16	6	2	1	75	10	1	82	6	4	595.64	49	12
13	28	16	6	2	1	75	10	1	83	16	7	610.18	49	13
13	28	16	6	2	1	75	10	1	84	6	10	8.21	49	1
13	28	16	6	2	1	75	10	1	84	6	10	621.82	49	13
13	28	16	6	2	1	75	10	1	85	6	2	8.33	49	1
13	28	16	6	2	1	75	10	1	85	6	2	659.84	49	14
13	28	16	6	2	1	75	10	1	86	6	9	13.54	49	1
13	28	16	6	2	1	75	10	1	86	6	9	683.46	49	14
13	28	16	6	2	1	75	10	1	87	6	7	10.26	49	1
13	28	16	6	2	1	75	10	1	87	6	7	660.2	49	14
13	28	16	6	2	1	75	10	1	88	6	8	12	49	1
13	28	16	6	2	1	75	10	1	88	6	8	623.59	49	13
13	28	16	6	2	1	75	10	1	89	6	6	10.33	49	1
13	28	16	6	2	1	75	10	1	89	6	6	622.32	49	13
13	28	16	6	2	1	75	10	1	90	6	3	10.04	49	1
13	28	16	6	2	1	75	10	1	90	6	3	588.93	49	12
13	28	16	6	2	1	75	10	1	91	6	1	524.67	49	11
13	28	16	6	2	1	75	10	1	92	6	7	634.71	49	13
13	28	16	6	2	1	75	10	1	93	16	9	7.76	49	1
13	28	16	6	2	1	75	10	1	93	16	9	586.91	49	12
13	28	16	6	2	1	75	10	1	94	6	5	634.16	49	13
13	28	16	6	2	1	75	10	1	95	6	2	8	49	1
13	28	16	6	2	1	75	10	1	95	6	2	611.11	49	13
13	28	16	6	2	1	75	10	1	96	6	1	594.08	49	12
13	28	16	6	2	1	75	10	1	97	6	9	621.14	49	13
13	28	16	6	2	1	75	10	1	98	16	2	9.1	49	1
13	28	16	6	2	1	75	10	1	98	16	2	522.46	49	11
13	28	16	6	2	1	75	10	1	99	6	4	685.15	49	14
13	28	16	6	2	1	75	10	1	100	16	4	13.16	49	1
13	28	16	6	2	1	75	10	1	101	6	10	688.63	49	14
13	28	16	6	2	1	75	10	1	102	6	3	9.86	49	1
13	28	16	6	2	1	75	10	1	102	6	3	689.17	49	14
13	28	16	6	2	1	75	10	1	103	6	6	9.21	49	1
13	28	16	6	2	1	75	10	1	103	6	6	675.37	49	14
13	28	16	6	2	1	75	10	1	104	6	8	7.71	49	1
13	28	16	6	2	1	75	10	1	104	6	8	673.58	49	14
13	28	16	6	2	1	75	10	1	105	6	5	7.93	49	1
13	28	16	6	2	1	75	10	1	105	6	5	611.1	49	13
13	28	16	6	2	1	75	10	1	106	6	9	7.73	49	1
13	28	16	6	2	1	75	10	1	106	6	9	662.59	49	14
13	28	16	6	2	1	75	10	1	107	16	10	8.03	49	1
13	28	16	6	2	1	75	10	1	108	6	4	709.81	49	15
13	28	16	6	2	1	75	10	1	109	16	1	7.78	49	1
13	28	16	6	2	1	75	10	1	109	16	1	709.61	49	15
13	28	16	6	2	1	75	10	1	110	6	2	8.17	49	1
13	28	16	6	2	1	75	10	1	110	6	2	739.54	49	15
13	28	16	6	2	1	75	10	1	111	6	10	12.31	49	1
13	28	16	6	2	1	75	10	1	111	6	10	686.6	49	14
13	28	16	6	2	1	75	10	1	112	6	6	10.28	49	1
13	28	16	6	2	1	75	10	1	112	6	6	612.17	49	13
13	28	16	6	2	1	75	10	1	113	16	5	610.62	49	13
13	28	16	6	2	1	75	10	1	114	6	3	668.48	49	14
13	28	16	6	2	1	75	10	1	115	6	7	9.21	49	1
13	28	16	6	2	1	75	10	1	115	6	7	631.24	49	13
13	28	16	6	2	1	75	10	1	116	16	3	8.85	49	1
13	28	16	6	2	1	75	10	1	117	16	6	0	-1	16
13	28	16	6	2	1	75	10	1	118	16	8	0	-1	16
13	28	16	6	2	1	75	10	1	119	6	8	659.46	49	14
13	28	16	6	2	1	75	10	1	120	6	1	8.04	49	1
13	28	16	6	2	1	75	10	1	120	6	1	664.04	49	14
13	28	16	6	2	1	75	10	1	121	16	5	7.52	49	1
13	28	16	6	2	1	75	10	1	121	16	5	660.33	49	14
13	28	16	6	2	1	75	10	1	122	6	5	7.3	49	1
13	28	16	6	2	1	75	10	1	122	6	5	669.24	49	14
13	28	16	6	2	1	75	10	1	123	6	2	7.95	49	1
13	28	16	6	2	1	75	10	1	123	6	2	636.95	49	13
13	28	16	6	2	1	75	10	1	124	16	4	14.73	49	1
13	28	16	6	2	1	75	10	1	124	16	4	662.84	49	14
13	28	16	6	2	1	75	10	1	125	16	9	10.5	49	1
13	28	16	6	2	1	75	10	1	126	16	10	210.19	49	5
13	28	16	6	2	1	75	10	1	127	6	10	785.63	49	16
13	28	16	6	2	1	75	10	1	128	16	2	8.83	49	1
13	28	16	6	2	1	75	10	1	129	16	6	0	-1	16
13	28	16	6	2	1	75	10	1	130	16	8	0	-1	16
13	28	16	6	2	1	75	10	1	131	16	7	560.12	49	12
13	28	16	6	2	1	75	10	1	132	6	9	631.35	49	13
13	28	16	6	2	1	75	10	1	133	6	4	7.56	49	1
13	28	16	6	2	1	75	10	1	133	6	4	609.15	49	13
13	28	16	6	2	1	75	10	1	134	6	8	7.81	49	1
13	28	16	6	2	1	75	10	1	134	6	8	609.25	49	13
13	28	16	6	2	1	75	10	1	135	6	7	7.97	49	1
13	28	16	6	2	1	75	10	1	135	6	7	639.28	49	13
13	28	16	6	2	1	75	10	1	136	6	3	8.64	49	1
13	28	16	6	2	1	75	10	1	136	6	3	640.6	49	13
13	28	16	6	2	1	75	10	1	137	6	6	10.1	49	1
13	28	16	6	2	1	75	10	1	137	6	6	628.32	49	13
13	28	16	6	2	1	75	10	1	138	6	1	12.54	49	1
13	28	16	6	2	1	75	10	1	138	6	1	526.64	49	11
13	28	16	6	2	1	75	10	1	139	16	3	0	-1	16
13	28	16	6	2	1	75	10	1	140	16	1	0	-1	16
13	28	16	6	2	1	75	10	1	141	16	6	67.04	49	2
13	28	16	6	2	1	75	10	1	142	6	7	62.34	49	2
13	28	16	6	2	1	75	10	1	142	6	7	788.84	49	16
13	28	16	6	2	1	75	10	1	143	6	2	8.11	49	1
13	28	16	6	2	1	75	10	1	144	16	10	39.06	49	1
13	28	16	6	2	1	75	10	1	145	6	10	674.21	49	14
13	28	16	6	2	1	75	10	1	146	6	4	7.73	49	1
13	28	16	6	2	1	75	10	1	146	6	4	670.83	49	14
13	28	16	6	2	1	75	10	1	147	6	5	8.37	49	1
13	28	16	6	2	1	75	10	1	147	6	5	709.44	49	15
13	28	16	6	2	1	75	10	1	148	6	1	7.73	49	1
13	28	16	6	2	1	75	10	1	148	6	1	662.39	49	14
13	28	16	6	2	1	75	10	1	149	6	9	11.43	49	1
13	28	16	6	2	1	75	10	1	149	6	9	618.23	49	13
13	28	16	6	2	1	75	10	1	150	6	6	10.13	49	1
13	28	16	6	2	1	75	10	1	150	6	6	592.24	49	12
13	28	16	6	2	1	75	10	1	151	6	3	590.67	49	12
13	28	16	6	2	1	75	10	1	152	6	8	0	-1	16
13	28	16	6	2	1	75	10	1	153	6	7	125.88	49	3
13	28	16	6	2	1	75	10	1	153	6	7	788.5	49	16
13	28	16	6	2	1	75	10	1	154	6	9	10.16	49	1
13	28	16	6	2	1	75	10	1	154	6	9	713.16	49	15
13	28	16	6	2	1	75	10	1	155	6	4	8.73	49	1
13	28	16	6	2	1	75	10	1	155	6	4	669.29	49	14
13	28	16	6	2	1	75	10	1	156	6	2	7.65	49	1
13	28	16	6	2	1	75	10	1	156	6	2	711.24	49	15
13	28	16	6	2	1	75	10	1	157	6	10	7.84	49	1
13	28	16	6	2	1	75	10	1	157	6	10	632.53	49	13
13	28	16	6	2	1	75	10	1	158	6	5	7.74	49	1
13	28	16	6	2	1	75	10	1	158	6	5	657.17	49	14
13	28	16	6	2	1	75	10	1	159	6	1	7.53	49	1
13	28	16	6	2	1	75	10	1	159	6	1	657.45	49	14
13	28	16	6	2	1	75	10	1	160	6	3	7.83	49	1
13	28	16	6	2	1	75	10	1	160	6	3	638.73	49	13
13	28	16	6	2	1	75	10	1	161	16	4	7.68	49	1
13	28	16	6	2	1	75	10	1	162	6	6	729.08	49	15
13	28	16	6	2	1	75	10	1	163	16	8	12.31	49	1
13	28	16	6	2	1	75	10	1	164	6	8	786.33	49	16
13	28	16	6	2	1	75	10	1	165	6	6	10.15	49	1
13	28	16	6	2	1	75	10	1	166	16	7	12.67	49	1
13	28	16	6	2	1	75	10	1	167	6	4	791.31	49	16
13	28	16	6	2	1	75	10	1	168	6	5	11.62	49	1
13	28	16	6	2	1	75	10	1	168	6	5	736.59	49	15
13	28	16	6	2	1	75	10	1	169	6	10	8.14	49	1
13	28	16	6	2	1	75	10	1	169	6	10	734.75	49	15
13	28	16	6	2	1	75	10	1	170	6	9	8.01	49	1
13	28	16	6	2	1	75	10	1	170	6	9	725.43	49	15
13	28	16	6	2	1	75	10	1	171	6	7	12.69	49	1
13	28	16	6	2	1	75	10	1	171	6	7	609.51	49	13
13	28	16	6	2	1	75	10	1	172	16	5	607.2	49	13
13	28	16	6	2	1	75	10	1	173	6	2	620.05	49	13
13	28	16	6	2	1	75	10	1	174	16	2	7.81	49	1
13	28	16	6	2	1	75	10	1	174	16	2	761.32	49	16
13	28	16	6	2	1	75	10	1	175	6	1	10.16	49	1
13	28	16	6	2	1	75	10	1	175	6	1	717.15	49	15
13	28	16	6	2	1	75	10	1	176	6	8	10.69	49	1
13	28	16	6	2	1	75	10	1	176	6	8	661.49	49	14
13	28	16	6	2	1	75	10	1	177	6	3	12.7	49	1
13	28	16	6	2	1	75	10	1	177	6	3	692.08	49	14
13	28	16	6	2	1	75	10	1	178	6	5	14.6	49	1
13	28	16	6	2	1	75	10	1	178	6	5	536.3	49	11
13	28	16	6	2	1	75	10	1	178	6	5	760.7	49	16
13	28	16	6	2	1	75	10	1	179	6	4	558.84	49	12
13	28	16	6	2	1	75	10	1	180	6	2	678.44	49	14
13	28	16	6	2	1	75	10	1	181	6	10	8.29	49	1
13	28	16	6	2	1	75	10	1	181	6	10	781.65	49	16
13	28	16	6	2	1	75	10	1	182	6	9	10.54	49	1
13	28	16	6	2	1	75	10	1	183	6	6	20.32	49	1
13	28	16	6	2	1	75	10	1	183	6	6	790.18	49	16
13	28	16	6	2	1	75	10	1	184	16	9	7.49	49	1
13	28	16	6	2	1	75	10	1	185	16	1	7.58	49	1
13	28	16	6	2	1	75	10	1	186	6	8	0	-1	16
13	28	16	6	2	1	75	10	1	187	6	7	207.86	49	5
13	28	16	6	2	1	75	10	1	188	6	3	32.43	49	1
13	28	16	6	2	1	75	10	1	189	6	1	23.15	49	1
13	28	16	6	2	1	75	10	1	189	6	1	760.39	49	16
13	28	16	6	2	1	75	10	1	190	6	6	10.19	49	1
13	28	16	6	2	1	75	10	1	191	16	3	162.68	49	4
13	28	16	6	2	1	75	10	1	191	16	3	411.63	49	9
13	28	16	6	2	1	75	10	1	192	6	4	213.26	49	5
13	28	16	6	2	1	75	10	1	193	6	1	194.99	49	4
13	28	16	6	2	1	75	10	1	194	6	2	275.79	49	6
13	28	16	6	2	1	75	10	1	195	16	6	659.38	49	14
13	28	16	6	2	1	75	10	1	196	6	5	8.65	49	1
13	28	16	6	2	1	75	10	1	196	6	5	718.14	49	15
13	28	16	6	2	1	75	10	1	197	6	9	8.29	49	1
13	28	16	6	2	1	75	10	1	197	6	9	707.68	49	15
13	28	16	6	2	1	75	10	1	198	16	8	7.49	49	1
13	28	16	6	2	1	75	10	1	199	16	10	0	-1	16
13	28	16	6	2	1	75	10	1	200	6	10	657.88	49	14
13	28	16	6	2	1	75	10	1	201	6	7	10.13	49	1
13	28	16	6	2	1	75	10	1	201	6	7	780.32	49	16
13	28	16	6	2	1	75	10	1	202	6	8	10.92	49	1
13	28	16	6	2	1	75	10	1	202	6	8	790.46	49	16
13	28	16	6	2	1	75	10	1	203	16	2	10.61	49	1
13	28	16	6	2	1	75	10	1	204	6	3	662.51	49	14
13	28	16	6	2	1	75	10	1	205	16	7	9.39	49	1
13	28	16	6	2	1	75	10	1	206	6	7	659.66	49	14
13	28	16	6	2	1	75	10	1	207	6	1	7.63	49	1
13	28	16	6	2	1	75	10	1	207	6	1	660.44	49	14
13	28	16	6	2	1	75	10	1	208	6	5	7.7	49	1
13	28	16	6	2	1	75	10	1	208	6	5	616.31	49	13
13	28	16	6	2	1	75	10	1	209	16	1	7.67	49	1
13	28	16	6	2	1	75	10	1	209	16	1	657.53	49	14
13	28	16	6	2	1	75	10	1	210	6	10	7.73	49	1
13	28	16	6	2	1	75	10	1	211	6	4	107.22	49	3
13	28	16	6	2	1	75	10	1	212	16	4	12.82	49	1
13	28	16	6	2	1	75	10	1	213	6	2	673.09	49	14
13	28	16	6	2	1	75	10	1	214	6	9	10.15	49	1
13	28	16	6	2	1	75	10	1	215	16	5	13.23	49	1
13	28	16	6	2	1	75	10	1	215	16	5	777.1	49	16
13	28	16	6	2	1	75	10	1	216	6	3	11.05	49	1
13	28	16	6	2	1	75	10	1	216	6	3	763.14	49	16
13	28	16	6	2	1	75	10	1	217	6	6	10.4	49	1
13	28	16	6	2	1	75	10	1	218	6	8	28.59	49	1
13	28	16	6	2	1	75	10	1	218	6	8	713.69	49	15
13	28	16	6	2	1	75	10	1	219	6	6	8.52	49	1
13	28	16	6	2	1	75	10	1	219	6	6	636.1	49	13
13	28	16	6	2	1	75	10	1	220	6	4	7.55	49	1
13	28	16	6	2	1	75	10	1	220	6	4	630.71	49	13
13	28	16	6	2	1	75	10	1	221	16	9	7.43	49	1
13	28	16	6	2	1	75	10	1	221	16	9	635.71	49	13
13	28	16	6	2	1	75	10	1	222	6	9	7.4	49	1
13	28	16	6	2	1	75	10	1	222	6	9	683.27	49	14
13	28	16	6	2	1	75	10	1	223	6	10	7.62	49	1
13	28	16	6	2	1	75	10	1	223	6	10	716.84	49	15
13	28	16	6	2	1	75	10	1	224	6	1	7.9	49	1
13	28	16	6	2	1	75	10	1	224	6	1	669.64	49	14
13	28	16	6	2	1	75	10	1	225	16	3	8.51	49	1
13	28	16	6	2	1	75	10	1	225	16	3	581.82	49	12
13	28	16	6	2	1	75	10	1	226	6	2	0	-1	16
13	28	16	6	2	1	75	10	1	227	6	7	10.25	49	1
13	28	16	6	2	1	75	10	1	227	6	7	609.89	49	13
13	28	16	6	2	1	75	10	1	228	6	5	579.28	49	12
13	28	16	6	2	1	75	10	1	229	6	8	661.62	49	14
13	28	16	6	2	1	75	10	1	230	6	3	9.46	49	1
13	28	16	6	2	1	75	10	1	230	6	3	624.66	49	13
13	28	16	6	2	1	75	10	1	231	6	6	11.74	49	1
13	28	16	6	2	1	75	10	1	231	6	6	668.68	49	14
13	28	16	6	2	1	75	10	1	232	16	6	8.21	49	1
13	28	16	6	2	1	75	10	1	233	16	7	0	-1	16
13	28	16	6	2	1	75	10	1	234	6	5	612.43	49	13
13	28	16	6	2	1	75	10	1	235	6	7	7.61	49	1
13	28	16	6	2	1	75	10	1	235	6	7	674.53	49	14
13	28	16	6	2	1	75	10	1	236	16	8	10.45	49	1
13	28	16	6	2	1	75	10	1	236	16	8	642.76	49	13
13	28	16	6	2	1	75	10	1	237	6	1	714.26	49	15
13	28	16	6	2	1	75	10	1	238	6	2	8.91	49	1
13	28	16	6	2	1	75	10	1	238	6	2	778.78	49	16
13	28	16	6	2	1	75	10	1	239	6	8	10.81	49	1
13	28	16	6	2	1	75	10	1	239	6	8	760.54	49	16
13	28	16	6	2	1	75	10	1	240	6	4	10.57	49	1
13	28	16	6	2	1	75	10	1	240	6	4	718.89	49	15
13	28	16	6	2	1	75	10	1	241	6	9	13.09	49	1
13	28	16	6	2	1	75	10	1	241	6	9	638.6	49	13
13	28	16	6	2	1	75	10	1	242	6	10	10.6	49	1
13	28	16	6	2	1	75	10	1	242	6	10	616.64	49	13
13	28	16	6	2	1	75	10	1	243	6	3	9.79	49	1
13	28	16	6	2	1	75	10	1	243	6	3	637.8	49	13
13	28	16	6	2	1	75	10	1	244	16	5	8.71	49	1
13	28	16	6	2	1	75	10	1	244	16	5	659.22	49	14
13	28	16	6	2	1	75	10	1	245	6	7	12.88	49	1
13	28	16	6	2	1	75	10	1	245	6	7	714.5	49	15
13	28	16	6	2	1	75	10	1	246	6	10	12.96	49	1
13	28	16	6	2	1	75	10	1	246	6	10	731.91	49	15
13	28	16	6	2	1	75	10	1	247	6	4	9.12	49	1
13	28	16	6	2	1	75	10	1	247	6	4	661.1	49	14
13	28	16	6	2	1	75	10	1	248	6	2	7.4	49	1
13	28	16	6	2	1	75	10	1	248	6	2	657.52	49	14
13	28	16	6	2	1	75	10	1	249	6	5	8.2	49	1
13	28	16	6	2	1	75	10	1	249	6	5	629.23	49	13
13	28	16	6	2	1	75	10	1	250	16	2	8.2	49	1
13	28	16	6	2	1	75	10	1	250	16	2	740.39	49	15
13	28	16	6	2	1	75	10	1	251	16	1	13.87	49	1
13	28	16	6	2	1	75	10	1	252	6	1	0	-1	16
13	28	16	6	2	1	75	10	1	253	16	4	11.96	49	1
13	28	16	6	2	1	75	10	1	254	6	9	724.08	49	15
13	28	16	6	2	1	75	10	1	255	6	6	9.89	49	1
13	28	16	6	2	1	75	10	1	255	6	6	681.25	49	14
13	28	16	6	2	1	75	10	1	256	6	3	7.89	49	1
13	28	16	6	2	1	75	10	1	256	6	3	665.68	49	14
13	28	16	6	2	1	75	10	1	257	6	8	8.04	49	1
13	28	16	6	2	1	75	10	1	257	6	8	666.66	49	14
13	28	16	6	2	1	75	10	1	258	6	6	7.99	49	1
13	28	16	6	2	1	75	10	1	258	6	6	723.4	49	15
13	28	16	6	2	1	75	10	1	259	6	2	7.99	49	1
13	28	16	6	2	1	75	10	1	259	6	2	722.91	49	15
13	28	16	6	2	1	75	10	1	260	6	7	7.53	49	1
13	28	16	6	2	1	75	10	1	260	6	7	687.7	49	14
13	28	16	6	2	1	75	10	1	261	16	9	7.59	49	1
13	28	16	6	2	1	75	10	1	262	6	8	662.92	49	14
13	28	16	6	2	1	75	10	1	263	6	5	9.51	49	1
13	28	16	6	2	1	75	10	1	263	6	5	542.76	49	11
13	28	16	6	2	1	75	10	1	263	6	5	757.43	49	16
13	28	16	6	2	1	75	10	1	264	6	9	732.61	49	15
13	28	16	6	2	1	75	10	1	265	16	10	10.16	49	1
13	28	16	6	2	1	75	10	1	266	6	1	726.51	49	15
13	28	16	6	2	1	75	10	1	267	6	4	10.19	49	1
13	28	16	6	2	1	75	10	1	268	6	10	11.23	49	1
13	28	16	6	2	1	75	10	1	268	6	10	759.05	49	16
13	28	16	6	2	1	75	10	1	269	16	3	8.47	49	1
13	28	16	6	2	1	75	10	1	270	6	3	573.81	49	12
13	28	16	6	2	1	75	10	1	271	16	7	627.87	49	13
13	28	16	6	2	1	75	10	1	272	6	6	7.42	49	1
13	28	16	6	2	1	75	10	1	272	6	6	660.64	49	14
13	28	16	6	2	1	75	10	1	273	16	1	9.99	49	1
13	28	16	6	2	1	75	10	1	274	6	8	60.65	49	2
13	28	16	6	2	1	75	10	1	275	6	4	35.88	49	1
13	28	16	6	2	1	75	10	1	275	6	4	787.73	49	16
13	28	16	6	2	1	75	10	1	276	16	10	8.01	49	1
13	28	16	6	2	1	75	10	1	277	6	10	31.67	49	1
13	28	16	6	2	1	75	10	1	278	6	2	12.54	49	1
13	28	16	6	2	1	75	10	1	279	6	9	10.56	49	1
13	28	16	6	2	1	75	10	1	279	6	9	762.03	49	16
13	28	16	6	2	1	75	10	1	280	6	1	13.19	49	1
13	28	16	6	2	1	75	10	1	280	6	1	674.26	49	14
13	28	16	6	2	1	75	10	1	281	6	5	12.08	49	1
13	28	16	6	2	1	75	10	1	281	6	5	658.69	49	14
13	28	16	6	2	1	75	10	1	282	6	7	11.26	49	1
13	28	16	6	2	1	75	10	1	282	6	7	608.08	49	13
13	28	16	6	2	1	75	10	1	283	6	3	10.24	49	1
13	28	16	6	2	1	75	10	1	283	6	3	574.41	49	12
13	28	16	6	2	1	75	10	1	284	6	2	413.84	49	9
13	28	16	6	2	1	75	10	1	285	6	10	377.7	49	8
13	28	16	6	2	1	75	10	1	286	6	9	365.7	49	8
13	28	16	6	2	1	75	10	1	287	6	8	632.44	49	13
13	28	16	6	2	1	75	10	1	288	16	9	9.85	49	1
13	28	16	6	2	1	75	10	1	289	6	5	681.56	49	14
13	28	16	6	2	1	75	10	1	290	6	1	10.82	49	1
13	28	16	6	2	1	75	10	1	290	6	1	739.34	49	15
13	28	16	6	2	1	75	10	1	291	6	7	13.08	49	1
13	28	16	6	2	1	75	10	1	292	16	2	162.76	49	4
13	28	16	6	2	1	75	10	1	293	6	3	678.65	49	14
13	28	16	6	2	1	75	10	1	294	6	6	8.78	49	1
13	28	16	6	2	1	75	10	1	294	6	6	712.2	49	15
13	28	16	6	2	1	75	10	1	295	6	4	7.47	49	1
13	28	16	6	2	1	75	10	1	295	6	4	768.26	49	16
13	28	16	6	2	1	75	10	1	296	16	5	7.56	49	1
13	28	16	6	2	1	75	10	1	296	16	5	772.39	49	16
13	28	16	6	2	1	75	10	1	297	16	4	7.97	49	1
13	28	16	6	2	1	75	10	1	298	6	2	71.57	49	2
13	28	16	6	2	1	75	10	1	299	6	9	8.78	49	1
13	28	16	6	2	1	75	10	1	299	6	9	769.08	49	16
13	28	16	6	2	1	75	10	1	300	6	10	8.68	49	1
13	28	16	6	2	1	75	10	1	300	6	10	732.94	49	15
13	28	16	6	2	1	75	10	1	301	16	6	8.47	49	1
13	28	16	6	2	1	75	10	1	301	16	6	659.27	49	14
13	28	16	6	2	1	75	10	1	302	6	1	9.75	49	1
13	28	16	6	2	1	75	10	1	302	6	1	709.65	49	15
13	28	16	6	2	1	75	10	1	303	6	8	11.98	49	1
13	28	16	6	2	1	75	10	1	303	6	8	583.66	49	12
13	28	16	6	2	1	75	10	1	304	16	3	0	-1	16
13	28	16	6	2	1	75	10	1	305	6	6	629.09	49	13
13	28	16	6	2	1	75	10	1	306	16	8	8.56	49	1
13	28	16	6	2	1	75	10	1	307	6	7	708.28	49	15
13	28	16	6	2	1	75	10	1	308	6	3	7.71	49	1
13	28	16	6	2	1	75	10	1	308	6	3	659.54	49	14
13	28	16	6	2	1	75	10	1	309	16	7	7.74	49	1
13	28	16	6	2	1	75	10	1	310	16	1	0	-1	16
13	28	16	6	2	1	75	10	1	311	6	5	627.09	49	13
13	28	16	6	2	1	75	10	1	312	6	4	7.68	49	1
13	28	16	6	2	1	75	10	1	312	6	4	659.66	49	14
13	28	16	6	2	1	75	10	1	313	6	7	9.45	49	1
13	28	16	6	2	1	75	10	1	313	6	7	664.22	49	14
13	28	16	6	2	1	75	10	1	314	16	9	10.13	49	1
13	28	16	6	2	1	75	10	1	315	6	9	609.57	49	13
13	28	16	6	2	1	75	10	1	316	16	4	0	-1	16
13	28	16	6	2	1	75	10	1	317	6	2	689.39	49	14
13	28	16	6	2	1	75	10	1	318	6	4	9.42	49	1
13	28	16	6	2	1	75	10	1	318	6	4	608.71	49	13
13	28	16	6	2	1	75	10	1	319	16	5	0	-1	16
13	28	16	6	2	1	75	10	1	320	6	5	614.74	49	13
13	28	16	6	2	1	75	10	1	321	6	1	15.25	49	1
13	28	16	6	2	1	75	10	1	321	6	1	631.72	49	13
13	28	16	6	2	1	75	10	1	322	6	10	8.54	49	1
13	28	16	6	2	1	75	10	1	322	6	10	643.34	49	13
13	28	16	6	2	1	75	10	1	323	16	10	7.68	49	1
13	28	16	6	2	1	75	10	1	323	16	10	718.5	49	15
13	28	16	6	2	1	75	10	1	324	16	2	7.5	49	1
13	28	16	6	2	1	75	10	1	324	16	2	708.08	49	15
13	28	16	6	2	1	75	10	1	325	6	6	9.65	49	1
13	28	16	6	2	1	75	10	1	325	6	6	686.22	49	14
13	28	16	6	2	1	75	10	1	326	6	3	10.36	49	1
13	28	16	6	2	1	75	10	1	326	6	3	712.28	49	15
13	28	16	6	2	1	75	10	1	327	6	8	12.92	49	1
13	28	16	6	2	1	75	10	1	327	6	8	761.3	49	16
13	28	16	6	2	1	75	10	1	328	6	5	10.57	49	1
13	28	16	6	2	1	75	10	1	329	6	10	17.52	49	1
13	28	16	6	2	1	75	10	1	329	6	10	776.33	49	16
13	28	16	6	2	1	75	10	1	330	6	4	8.84	49	1
13	28	16	6	2	1	75	10	1	331	6	9	357.71	49	8
13	28	16	6	2	1	75	10	1	332	6	2	107.48	49	3
13	28	16	6	2	1	75	10	1	333	6	8	57.46	49	2
13	28	16	6	2	1	75	10	1	334	6	7	187.98	49	4
13	28	16	6	2	1	75	10	1	334	6	7	760.37	49	16
13	28	16	6	2	1	75	10	1	335	6	3	7.46	49	1
13	28	16	6	2	1	75	10	1	335	6	3	707.69	49	15
13	28	16	6	2	1	75	10	1	336	6	6	7.53	49	1
13	28	16	6	2	1	75	10	1	336	6	6	607.19	49	13
13	28	16	6	2	1	75	10	1	337	6	1	9.05	49	1
13	28	16	6	2	1	75	10	1	337	6	1	580.7	49	12
13	28	16	6	2	1	75	10	1	338	6	7	686.57	49	14
13	28	16	6	2	1	75	10	1	339	6	9	10.72	49	1
13	28	16	6	2	1	75	10	1	339	6	9	792.73	49	16
13	28	16	6	2	1	75	10	1	340	6	4	10.84	49	1
13	28	16	6	2	1	75	10	1	340	6	4	760.36	49	16
13	28	16	6	2	1	75	10	1	341	6	10	11.1	49	1
13	28	16	6	2	1	75	10	1	341	6	10	762.74	49	16
13	28	16	6	2	1	75	10	1	342	6	5	9.77	49	1
13	28	16	6	2	1	75	10	1	342	6	5	638.58	49	13
13	28	16	6	2	1	75	10	1	343	16	6	8.56	49	1
13	28	16	6	2	1	75	10	1	343	16	6	676.1	49	14
13	28	16	6	2	1	75	10	1	344	16	3	8.2	49	1
13	28	16	6	2	1	75	10	1	345	16	8	0	-1	16
13	28	16	6	2	1	75	10	1	346	6	2	757.52	49	16
13	28	16	6	2	1	75	10	1	347	16	2	7.55	49	1
13	28	16	6	2	1	75	10	1	348	6	1	57.03	49	2
13	28	16	6	2	1	75	10	1	348	6	1	765.73	49	16
13	28	16	6	2	1	75	10	1	349	6	3	7.53	49	1
13	28	16	6	2	1	75	10	1	349	6	3	657.56	49	14
13	28	16	6	2	1	75	10	1	350	6	6	586.68	49	12
13	28	16	6	2	1	75	10	1	351	6	8	574.68	49	12
13	28	16	6	2	1	75	10	1	352	6	2	631.87	49	13
13	28	16	6	2	1	75	10	1	353	6	9	11.66	49	1
13	28	16	6	2	1	75	10	1	353	6	9	513.36	49	11
13	28	16	6	2	1	75	10	1	354	6	10	662.15	49	14
13	28	16	6	2	1	75	10	1	355	6	7	0	-1	16
13	28	16	6	2	1	75	10	1	356	16	9	9.04	49	1
13	28	16	6	2	1	75	10	1	357	6	1	7.91	49	1
13	28	16	6	2	1	75	10	1	357	6	1	759.12	49	16
13	28	16	6	2	1	75	10	1	358	6	6	10.27	49	1
13	28	16	6	2	1	75	10	1	359	6	5	159.52	49	4
13	28	16	6	2	1	75	10	1	360	6	8	388.65	49	8
13	28	16	6	2	1	75	10	1	361	6	3	574.82	49	12
13	28	16	6	2	1	75	10	1	362	6	4	678.9	49	14
13	28	16	6	2	1	75	10	1	363	6	5	10.99	49	1
13	28	16	6	2	1	75	10	1	363	6	5	711.37	49	15
13	28	16	6	2	1	75	10	1	364	6	2	11.16	49	1
13	28	16	6	2	1	75	10	1	364	6	2	661.62	49	14
13	28	16	6	2	1	75	10	1	365	16	10	36.54	49	1
13	28	16	6	2	1	75	10	1	365	16	10	766.1	49	16
13	28	16	6	2	1	75	10	1	366	6	10	10.16	49	1
13	28	16	6	2	1	75	10	1	366	6	10	660.35	49	14
13	28	16	6	2	1	75	10	1	367	6	9	10.21	49	1
13	28	16	6	2	1	75	10	1	367	6	9	779.44	49	16
13	28	16	6	2	1	75	10	1	368	6	4	9.82	49	1
13	28	16	6	2	1	75	10	1	368	6	4	758.56	49	16
13	28	16	6	2	1	75	10	1	369	6	3	9.4	49	1
13	28	16	6	2	1	75	10	1	369	6	3	710.49	49	15
13	28	16	6	2	1	75	10	1	370	6	8	30.47	49	1
13	28	16	6	2	1	75	10	1	370	6	8	607.35	49	13
13	28	16	6	2	1	75	10	1	371	6	7	7.83	49	1
13	28	16	6	2	1	75	10	1	371	6	7	626.56	49	13
13	28	16	6	2	1	75	10	1	372	6	6	10.56	49	1
13	28	16	6	2	1	75	10	1	372	6	6	676.19	49	14
13	28	16	6	2	1	75	10	1	373	6	1	7.73	49	1
13	28	16	6	2	1	75	10	1	374	6	2	72.84	49	2
13	28	16	6	2	1	75	10	1	374	6	2	759.98	49	16
13	28	16	6	2	1	75	10	1	375	6	10	26.79	49	1
13	28	16	6	2	1	75	10	1	375	6	10	682.72	49	14
13	28	16	6	2	1	75	10	1	376	6	9	8.27	49	1
13	28	16	6	2	1	75	10	1	376	6	9	710.05	49	15
13	28	16	6	2	1	75	10	1	377	6	7	10.26	49	1
13	28	16	6	2	1	75	10	1	377	6	7	758.94	49	16
13	28	16	6	2	1	75	10	1	378	16	7	12.26	49	1
13	28	16	6	2	1	75	10	1	378	16	7	684.64	49	14
13	28	16	6	2	1	75	10	1	379	16	3	10.39	49	1
13	28	16	6	2	1	75	10	1	380	16	5	0	-1	16
13	28	16	6	2	1	75	10	1	381	6	5	774.02	49	16
13	28	16	6	2	1	75	10	1	382	16	6	8.93	49	1
13	28	16	6	2	1	75	10	1	383	6	8	231.41	49	5
13	28	16	6	2	1	75	10	1	384	6	1	112.54	49	3
13	28	16	6	2	1	75	10	1	385	6	6	59.71	49	2
13	28	16	6	2	1	75	10	1	385	6	6	674.56	49	14
13	28	16	6	2	1	75	10	1	386	6	3	7.92	49	1
13	28	16	6	2	1	75	10	1	386	6	3	607.37	49	13
13	28	16	6	2	1	75	10	1	387	16	8	0	-1	16
13	28	16	6	2	1	75	10	1	388	6	4	557.39	49	12
13	28	16	6	2	1	75	10	1	389	6	7	629.69	49	13
13	28	16	6	2	1	75	10	1	390	6	1	12.34	49	1
13	28	16	6	2	1	75	10	1	391	6	2	33.71	49	1
13	28	16	6	2	1	75	10	1	392	6	5	110.07	49	3
13	28	16	6	2	1	75	10	1	392	6	5	310.4	49	7
13	28	16	6	2	1	75	10	1	393	16	1	62.42	49	2
13	28	16	6	2	1	75	10	1	394	6	10	0	-1	16
13	28	16	6	2	1	75	10	1	395	16	4	19.05	49	1
13	28	16	6	2	1	75	10	1	396	6	4	17.73	49	1
13	28	16	6	2	1	75	10	1	396	6	4	684.56	49	14
13	28	16	6	2	1	75	10	1	397	6	9	9.77	49	1
13	28	16	6	2	1	75	10	1	397	6	9	662.4	49	14
13	28	16	6	2	1	75	10	1	398	6	6	10.4	49	1
13	28	16	6	2	1	75	10	1	398	6	6	581.78	49	12
13	28	16	6	2	1	75	10	1	399	6	3	465.41	49	10
13	28	16	6	2	1	75	10	1	400	6	8	468.32	49	10
13	28	16	6	2	1	75	10	1	401	16	5	307.19	49	7
13	28	16	6	2	1	75	10	1	402	6	6	0	-1	16
13	28	16	6	2	1	75	10	1	403	16	9	43.6	49	1
13	28	16	6	2	1	75	10	1	404	6	10	661.28	49	14
13	28	16	6	2	1	75	10	1	405	6	9	11.54	49	1
13	28	16	6	2	1	75	10	1	405	6	9	760.39	49	16
13	28	16	6	2	1	75	10	1	406	16	2	12.62	49	1
13	28	16	6	2	1	75	10	1	407	16	10	278.86	49	6
13	28	16	6	2	1	75	10	1	408	6	5	638.03	49	13
13	28	16	6	2	1	75	10	1	409	16	4	7.93	49	1
13	28	16	6	2	1	75	10	1	410	16	6	0	-1	16
13	28	16	6	2	1	75	10	1	411	6	7	712.54	49	15
13	28	16	6	2	1	75	10	1	412	16	7	10.42	49	1
13	28	16	6	2	1	75	10	1	413	6	4	696.11	49	14
13	28	16	6	2	1	75	10	1	414	16	8	7.69	49	1
13	28	16	6	2	1	75	10	1	415	6	2	615	49	13
13	28	16	6	2	1	75	10	1	416	6	1	11.2	49	1
13	28	16	6	2	1	75	10	1	416	6	1	760.05	49	16
13	28	16	6	2	1	75	10	1	417	6	8	12.57	49	1
13	28	16	6	2	1	75	10	1	417	6	8	689.11	49	14
13	28	16	6	2	1	75	10	1	418	6	3	10.45	49	1
13	28	16	6	2	1	75	10	1	418	6	3	660.46	49	14
13	28	16	6	2	1	75	10	1	419	6	2	11	49	1
13	28	16	6	2	1	75	10	1	419	6	2	660.56	49	14
13	28	16	6	2	1	75	10	1	420	6	10	9.74	49	1
13	28	16	6	2	1	75	10	1	420	6	10	574.06	49	12
13	28	16	6	2	1	75	10	1	421	16	3	658.28	49	14
13	28	16	6	2	1	75	10	1	422	6	9	7.59	49	1
13	28	16	6	2	1	75	10	1	422	6	9	660.8	49	14
13	28	16	6	2	1	75	10	1	423	16	1	7.9	49	1
13	28	16	6	2	1	75	10	1	423	16	1	644.47	49	13
13	28	16	6	2	1	75	10	1	424	6	7	7.85	49	1
13	28	16	6	2	1	75	10	1	424	6	7	690.43	49	14
13	28	16	6	2	1	75	10	1	425	6	6	7.95	49	1
13	28	16	6	2	1	75	10	1	425	6	6	585.16	49	12
13	28	16	6	2	1	75	10	1	426	16	6	668.4	49	14
13	28	16	6	2	1	75	10	1	427	6	5	7.73	49	1
13	28	16	6	2	1	75	10	1	427	6	5	709.58	49	15
13	28	16	6	2	1	75	10	1	428	16	7	9.75	49	1
13	28	16	6	2	1	75	10	1	428	16	7	776.39	49	16
13	28	16	6	2	1	75	10	1	429	6	8	14.52	49	1
13	28	16	6	2	1	75	10	1	430	6	1	24.55	49	1
13	28	16	6	2	1	75	10	1	430	6	1	762.12	49	16
13	28	16	6	2	1	75	10	1	431	16	1	10.62	49	1
13	28	16	6	2	1	75	10	1	432	6	3	0	-1	16
13	28	16	6	2	1	75	10	1	433	6	4	67.77	49	2
13	28	16	6	2	1	75	10	1	434	6	6	221.63	49	5
13	28	16	6	2	1	75	10	1	435	6	1	171.73	49	4
13	28	16	6	2	1	75	10	1	436	6	4	60.53	49	2
13	28	16	6	2	1	75	10	1	437	6	10	60.26	49	2
13	28	16	6	2	1	75	10	1	438	6	5	138.42	49	3
13	28	16	6	2	1	75	10	1	439	16	10	92.31	49	2
13	28	16	6	2	1	75	10	1	439	16	10	307.11	49	7
13	28	16	6	2	1	75	10	1	440	6	7	114.31	49	3
13	28	16	6	2	1	75	10	1	441	6	2	89.47	49	2
13	28	16	6	2	1	75	10	1	441	6	2	785.38	49	16
13	28	16	6	2	1	75	10	1	442	6	9	10.27	49	1
13	28	16	6	2	1	75	10	1	443	6	8	19.75	49	1
13	28	16	6	2	1	75	10	1	444	6	3	160.52	49	4
13	28	16	6	2	1	75	10	1	445	6	5	234.92	49	5
13	28	16	6	2	1	75	10	1	446	6	4	29.21	49	1
13	28	16	6	2	1	75	10	1	446	6	4	774.53	49	16
13	28	16	6	2	1	75	10	1	447	6	9	7.82	49	1
13	28	16	6	2	1	75	10	1	447	6	9	741.24	49	15
13	28	16	6	2	1	75	10	1	448	6	2	8.98	49	1
13	28	16	6	2	1	75	10	1	448	6	2	709.63	49	15
13	28	16	6	2	1	75	10	1	449	6	10	7.43	49	1
13	28	16	6	2	1	75	10	1	449	6	10	757.68	49	16
13	28	16	6	2	1	75	10	1	450	6	8	7.48	49	1
13	28	16	6	2	1	75	10	1	450	6	8	782.41	49	16
