SubjectNum	Age	Gender	PressedTask	Block Type	Block Repeat Num	Response Rate	Onset	Block	Trial	ImgType	ImgNum	RT	PressedC	FrameC
28	22	16	6	4	1	75	10	1	1	6	5	609.89	49	10
28	22	16	6	4	1	75	10	1	1	6	5	811.1	49	14
28	22	16	6	4	1	75	10	1	2	6	10	24.87	49	1
28	22	16	6	4	1	75	10	1	2	6	10	682.25	49	14
28	22	16	6	4	1	75	10	1	3	6	4	23.67	49	1
28	22	16	6	4	1	75	10	1	3	6	4	773.63	49	16
28	22	16	6	4	1	75	10	1	4	6	9	26.54	49	1
28	22	16	6	4	1	75	10	1	5	16	7	77.92	49	2
28	22	16	6	4	1	75	10	1	6	6	2	774.42	49	16
28	22	16	6	4	1	75	10	1	7	6	3	26.25	49	1
28	22	16	6	4	1	75	10	1	8	16	9	23.25	49	1
28	22	16	6	4	1	75	10	1	9	6	8	722.15	49	15
28	22	16	6	4	1	75	10	1	10	16	2	23.25	49	1
28	22	16	6	4	1	75	10	1	11	6	7	730.72	49	15
28	22	16	6	4	1	75	10	1	12	6	6	22.06	49	1
28	22	16	6	4	1	75	10	1	13	6	1	22.31	49	1
28	22	16	6	4	1	75	10	1	13	6	1	222.65	49	5
28	22	16	6	4	1	75	10	1	14	16	5	421.34	49	9
28	22	16	6	4	1	75	10	1	15	6	5	626.52	49	13
28	22	16	6	4	1	75	10	1	16	6	2	0	-1	16
28	22	16	6	4	1	75	10	1	17	6	4	27.01	49	1
28	22	16	6	4	1	75	10	1	17	6	4	771.54	49	16
28	22	16	6	4	1	75	10	1	18	6	9	26.68	49	1
28	22	16	6	4	1	75	10	1	19	6	10	23.34	49	1
28	22	16	6	4	1	75	10	1	20	16	1	272.28	49	6
28	22	16	6	4	1	75	10	1	21	6	3	671.71	49	14
28	22	16	6	4	1	75	10	1	22	16	10	23.61	49	1
28	22	16	6	4	1	75	10	1	23	6	7	673.41	49	14
28	22	16	6	4	1	75	10	1	24	16	4	23.66	49	1
28	22	16	6	4	1	75	10	1	25	6	8	0	-1	16
28	22	16	6	4	1	75	10	1	26	16	3	70.68	49	2
28	22	16	6	4	1	75	10	1	27	6	6	626.51	49	13
28	22	16	6	4	1	75	10	1	28	6	1	19.64	49	1
28	22	16	6	4	1	75	10	1	29	6	6	181.79	49	4
28	22	16	6	4	1	75	10	1	29	6	6	776.54	49	16
28	22	16	6	4	1	75	10	1	30	6	1	26.44	49	1
28	22	16	6	4	1	75	10	1	31	16	6	123.92	49	3
28	22	16	6	4	1	75	10	1	32	6	9	774.4	49	16
28	22	16	6	4	1	75	10	1	33	6	8	22.52	49	1
28	22	16	6	4	1	75	10	1	34	6	10	25.27	49	1
28	22	16	6	4	1	75	10	1	35	16	8	223.09	49	5
28	22	16	6	4	1	75	10	1	36	6	7	0	-1	16
28	22	16	6	4	1	75	10	1	37	6	4	23.01	49	1
28	22	16	6	4	1	75	10	1	38	6	2	122.68	49	3
28	22	16	6	4	1	75	10	1	39	6	5	70.68	49	2
28	22	16	6	4	1	75	10	1	39	6	5	721.68	49	15
28	22	16	6	4	1	75	10	1	40	16	7	26.27	49	1
28	22	16	6	4	1	75	10	1	41	16	4	0	-1	16
28	22	16	6	4	1	75	10	1	42	6	3	0	-1	16
28	22	16	6	4	1	75	10	1	43	6	7	27.95	49	1
28	22	16	6	4	1	75	10	1	44	6	5	622.53	49	13
28	22	16	6	4	1	75	10	1	45	6	2	774.89	49	16
28	22	16	6	4	1	75	10	1	46	6	1	22.3	49	1
28	22	16	6	4	1	75	10	1	47	6	9	172.38	49	4
28	22	16	6	4	1	75	10	1	48	6	4	73.27	49	2
28	22	16	6	4	1	75	10	1	49	16	5	71.09	49	2
28	22	16	6	4	1	75	10	1	50	16	1	0	-1	16
28	22	16	6	4	1	75	10	1	51	6	10	775.66	49	16
28	22	16	6	4	1	75	10	1	52	6	6	22.11	49	1
28	22	16	6	4	1	75	10	1	53	6	3	71.23	49	2
28	22	16	6	4	1	75	10	1	54	6	8	122.68	49	3
28	22	16	6	4	1	75	10	1	55	16	2	176.07	49	4
28	22	16	6	4	1	75	10	1	56	6	2	777.15	49	16
28	22	16	6	4	1	75	10	1	57	6	10	25.11	49	1
28	22	16	6	4	1	75	10	1	58	6	9	74.28	49	2
28	22	16	6	4	1	75	10	1	59	16	10	24.03	49	1
28	22	16	6	4	1	75	10	1	60	6	1	772.89	49	16
28	22	16	6	4	1	75	10	1	61	6	8	22.63	49	1
28	22	16	6	4	1	75	10	1	62	6	3	121.42	49	3
28	22	16	6	4	1	75	10	1	63	6	6	71.56	49	2
28	22	16	6	4	1	75	10	1	64	6	5	120.88	49	3
28	22	16	6	4	1	75	10	1	65	6	7	22.34	49	1
28	22	16	6	4	1	75	10	1	66	6	4	73.68	49	2
28	22	16	6	4	1	75	10	1	67	6	7	70.56	49	2
28	22	16	6	4	1	75	10	1	68	6	4	222.39	49	5
28	22	16	6	4	1	75	10	1	69	6	10	72.71	49	2
28	22	16	6	4	1	75	10	1	69	6	10	277.01	49	6
28	22	16	6	4	1	75	10	1	69	6	10	777	49	16
28	22	16	6	4	1	75	10	1	70	6	2	24.74	49	1
28	22	16	6	4	1	75	10	1	71	6	1	72.83	49	2
28	22	16	6	4	1	75	10	1	72	6	9	74.53	49	2
28	22	16	6	4	1	75	10	1	72	6	9	724.44	49	15
28	22	16	6	4	1	75	10	1	73	6	5	24.01	49	1
28	22	16	6	4	1	75	10	1	73	6	5	674.04	49	14
28	22	16	6	4	1	75	10	1	74	6	6	21.67	49	1
28	22	16	6	4	1	75	10	1	75	6	3	73.29	49	2
28	22	16	6	4	1	75	10	1	76	6	8	123.01	49	3
28	22	16	6	4	1	75	10	1	77	6	5	221.26	49	5
28	22	16	6	4	1	75	10	1	78	16	9	22.69	49	1
28	22	16	6	4	1	75	10	1	78	16	9	222.81	49	5
28	22	16	6	4	1	75	10	1	79	16	6	0	-1	16
28	22	16	6	4	1	75	10	1	80	16	3	0	-1	16
28	22	16	6	4	1	75	10	1	81	16	8	0	-1	16
28	22	16	6	4	1	75	10	1	82	6	4	726.4	49	15
28	22	16	6	4	1	75	10	1	83	16	7	29	49	1
28	22	16	6	4	1	75	10	1	84	6	10	0	-1	16
28	22	16	6	4	1	75	10	1	85	6	2	173.26	49	4
28	22	16	6	4	1	75	10	1	86	6	9	23.8	49	1
28	22	16	6	4	1	75	10	1	87	6	7	23.19	49	1
28	22	16	6	4	1	75	10	1	88	6	8	120.44	49	3
28	22	16	6	4	1	75	10	1	89	6	6	175.3	49	4
28	22	16	6	4	1	75	10	1	89	6	6	720.67	49	15
28	22	16	6	4	1	75	10	1	90	6	3	22.49	49	1
28	22	16	6	4	1	75	10	1	91	6	1	21.92	49	1
28	22	16	6	4	1	75	10	1	91	6	1	774.44	49	16
28	22	16	6	4	1	75	10	1	92	6	7	23.44	49	1
28	22	16	6	4	1	75	10	1	93	16	9	25.98	49	1
28	22	16	6	4	1	75	10	1	94	6	5	622.94	49	13
28	22	16	6	4	1	75	10	1	95	6	2	725.45	49	15
28	22	16	6	4	1	75	10	1	96	6	1	21.62	49	1
28	22	16	6	4	1	75	10	1	97	6	9	72.56	49	2
28	22	16	6	4	1	75	10	1	98	16	2	26.23	49	1
28	22	16	6	4	1	75	10	1	99	6	4	0	-1	16
28	22	16	6	4	1	75	10	1	100	16	4	24.18	49	1
28	22	16	6	4	1	75	10	1	101	6	10	77.11	49	2
28	22	16	6	4	1	75	10	1	101	6	10	727.3	49	15
28	22	16	6	4	1	75	10	1	102	6	3	21.38	49	1
28	22	16	6	4	1	75	10	1	102	6	3	678.33	49	14
28	22	16	6	4	1	75	10	1	103	6	6	23.67	49	1
28	22	16	6	4	1	75	10	1	104	6	8	22.89	49	1
28	22	16	6	4	1	75	10	1	105	6	5	271.33	49	6
28	22	16	6	4	1	75	10	1	105	6	5	721.84	49	15
28	22	16	6	4	1	75	10	1	106	6	9	23.64	49	1
28	22	16	6	4	1	75	10	1	106	6	9	722.83	49	15
28	22	16	6	4	1	75	10	1	107	16	10	24.27	49	1
28	22	16	6	4	1	75	10	1	107	16	10	773.12	49	16
28	22	16	6	4	1	75	10	1	108	6	4	21.77	49	1
28	22	16	6	4	1	75	10	1	108	6	4	621.44	49	13
28	22	16	6	4	1	75	10	1	109	16	1	0	-1	16
28	22	16	6	4	1	75	10	1	110	6	2	0	-1	16
28	22	16	6	4	1	75	10	1	111	6	10	126.26	49	3
28	22	16	6	4	1	75	10	1	111	6	10	772.34	49	16
28	22	16	6	4	1	75	10	1	112	6	6	25.59	49	1
28	22	16	6	4	1	75	10	1	112	6	6	772.83	49	16
28	22	16	6	4	1	75	10	1	113	16	5	23.01	49	1
28	22	16	6	4	1	75	10	1	114	6	3	627.13	49	13
28	22	16	6	4	1	75	10	1	115	6	7	23.69	49	1
28	22	16	6	4	1	75	10	1	116	16	3	73.52	49	2
28	22	16	6	4	1	75	10	1	117	16	6	0	-1	16
28	22	16	6	4	1	75	10	1	118	16	8	0	-1	16
28	22	16	6	4	1	75	10	1	119	6	8	773.82	49	16
28	22	16	6	4	1	75	10	1	120	6	1	26.35	49	1
28	22	16	6	4	1	75	10	1	121	16	5	75.54	49	2
28	22	16	6	4	1	75	10	1	122	6	5	726.7	49	15
28	22	16	6	4	1	75	10	1	123	6	2	24.91	49	1
28	22	16	6	4	1	75	10	1	124	16	4	71.95	49	2
28	22	16	6	4	1	75	10	1	125	16	9	0	-1	16
28	22	16	6	4	1	75	10	1	126	16	10	0	-1	16
28	22	16	6	4	1	75	10	1	127	6	10	779.87	49	16
28	22	16	6	4	1	75	10	1	128	16	2	26.2	49	1
28	22	16	6	4	1	75	10	1	129	16	6	0	-1	16
28	22	16	6	4	1	75	10	1	130	16	8	0	-1	16
28	22	16	6	4	1	75	10	1	131	16	7	0	-1	16
28	22	16	6	4	1	75	10	1	132	6	9	0	-1	16
28	22	16	6	4	1	75	10	1	133	6	4	27.93	49	1
28	22	16	6	4	1	75	10	1	133	6	4	774.28	49	16
28	22	16	6	4	1	75	10	1	134	6	8	24.95	49	1
28	22	16	6	4	1	75	10	1	135	6	7	275.56	49	6
28	22	16	6	4	1	75	10	1	136	6	3	171.9	49	4
28	22	16	6	4	1	75	10	1	136	6	3	775.83	49	16
28	22	16	6	4	1	75	10	1	137	6	6	20.66	49	1
28	22	16	6	4	1	75	10	1	138	6	1	24.47	49	1
28	22	16	6	4	1	75	10	1	139	16	3	221.39	49	5
28	22	16	6	4	1	75	10	1	140	16	1	0	-1	16
28	22	16	6	4	1	75	10	1	141	16	6	0	-1	16
28	22	16	6	4	1	75	10	1	142	6	7	773.82	49	16
28	22	16	6	4	1	75	10	1	143	6	2	24.14	49	1
28	22	16	6	4	1	75	10	1	144	16	10	226.44	49	5
28	22	16	6	4	1	75	10	1	145	6	10	0	-1	16
28	22	16	6	4	1	75	10	1	146	6	4	222.95	49	5
28	22	16	6	4	1	75	10	1	146	6	4	725.32	49	15
28	22	16	6	4	1	75	10	1	147	6	5	21.7	49	1
28	22	16	6	4	1	75	10	1	148	6	1	75.52	49	2
28	22	16	6	4	1	75	10	1	149	6	9	270.78	49	6
28	22	16	6	4	1	75	10	1	149	6	9	772.07	49	16
28	22	16	6	4	1	75	10	1	150	6	6	24.36	49	1
28	22	16	6	4	1	75	10	1	150	6	6	778.12	49	16
28	22	16	6	4	1	75	10	1	151	6	3	26.91	49	1
28	22	16	6	4	1	75	10	1	152	6	8	74.08	49	2
28	22	16	6	4	1	75	10	1	153	6	7	125.77	49	3
28	22	16	6	4	1	75	10	1	154	6	9	225.94	49	5
28	22	16	6	4	1	75	10	1	154	6	9	722.63	49	15
28	22	16	6	4	1	75	10	1	155	6	4	22.31	49	1
28	22	16	6	4	1	75	10	1	155	6	4	722.21	49	15
28	22	16	6	4	1	75	10	1	156	6	2	22.66	49	1
28	22	16	6	4	1	75	10	1	157	6	10	21.91	49	1
28	22	16	6	4	1	75	10	1	157	6	10	774.22	49	16
28	22	16	6	4	1	75	10	1	158	6	5	23.51	49	1
28	22	16	6	4	1	75	10	1	159	6	1	26.28	49	1
28	22	16	6	4	1	75	10	1	160	6	3	75.06	49	2
28	22	16	6	4	1	75	10	1	160	6	3	275.12	49	6
28	22	16	6	4	1	75	10	1	160	6	3	773.55	49	16
28	22	16	6	4	1	75	10	1	161	16	4	22.25	49	1
28	22	16	6	4	1	75	10	1	162	6	6	23.82	49	1
28	22	16	6	4	1	75	10	1	162	6	6	722.52	49	15
28	22	16	6	4	1	75	10	1	163	16	8	22.37	49	1
28	22	16	6	4	1	75	10	1	164	6	8	0	-1	16
28	22	16	6	4	1	75	10	1	165	6	6	74.44	49	2
28	22	16	6	4	1	75	10	1	166	16	7	223.96	49	5
28	22	16	6	4	1	75	10	1	167	6	4	772.1	49	16
28	22	16	6	4	1	75	10	1	168	6	5	21.75	49	1
28	22	16	6	4	1	75	10	1	169	6	10	23.97	49	1
28	22	16	6	4	1	75	10	1	170	6	9	27.24	49	1
28	22	16	6	4	1	75	10	1	171	6	7	70.61	49	2
28	22	16	6	4	1	75	10	1	171	6	7	272.68	49	6
28	22	16	6	4	1	75	10	1	172	16	5	22.22	49	1
28	22	16	6	4	1	75	10	1	173	6	2	0	-1	16
28	22	16	6	4	1	75	10	1	174	16	2	25.24	49	1
28	22	16	6	4	1	75	10	1	175	6	1	221.15	49	5
28	22	16	6	4	1	75	10	1	175	6	1	425.73	49	9
28	22	16	6	4	1	75	10	1	175	6	1	721.05	49	15
28	22	16	6	4	1	75	10	1	176	6	8	26.82	49	1
28	22	16	6	4	1	75	10	1	177	6	3	171.06	49	4
28	22	16	6	4	1	75	10	1	178	6	5	27.98	49	1
28	22	16	6	4	1	75	10	1	178	6	5	773.3	49	16
28	22	16	6	4	1	75	10	1	179	6	4	23.85	49	1
28	22	16	6	4	1	75	10	1	179	6	4	723.51	49	15
28	22	16	6	4	1	75	10	1	180	6	2	24.8	49	1
28	22	16	6	4	1	75	10	1	181	6	10	29.54	49	1
28	22	16	6	4	1	75	10	1	181	6	10	773.96	49	16
28	22	16	6	4	1	75	10	1	182	6	9	21.11	49	1
28	22	16	6	4	1	75	10	1	183	6	6	22.56	49	1
28	22	16	6	4	1	75	10	1	184	16	9	71.65	49	2
28	22	16	6	4	1	75	10	1	185	16	1	0	-1	16
28	22	16	6	4	1	75	10	1	186	6	8	0	-1	16
28	22	16	6	4	1	75	10	1	187	6	7	76.24	49	2
28	22	16	6	4	1	75	10	1	187	6	7	276.79	49	6
28	22	16	6	4	1	75	10	1	188	6	3	125.19	49	3
28	22	16	6	4	1	75	10	1	189	6	1	273.32	49	6
28	22	16	6	4	1	75	10	1	189	6	1	680.6	49	14
28	22	16	6	4	1	75	10	1	190	6	6	24.55	49	1
28	22	16	6	4	1	75	10	1	190	6	6	723.98	49	15
28	22	16	6	4	1	75	10	1	191	16	3	25.59	49	1
28	22	16	6	4	1	75	10	1	191	16	3	773.43	49	16
28	22	16	6	4	1	75	10	1	192	6	4	24.99	49	1
28	22	16	6	4	1	75	10	1	192	6	4	720.64	49	15
28	22	16	6	4	1	75	10	1	193	6	1	22.54	49	1
28	22	16	6	4	1	75	10	1	194	6	2	323.08	49	7
28	22	16	6	4	1	75	10	1	194	6	2	773.19	49	16
28	22	16	6	4	1	75	10	1	195	16	6	23	49	1
28	22	16	6	4	1	75	10	1	196	6	5	673.14	49	14
28	22	16	6	4	1	75	10	1	197	6	9	22.34	49	1
28	22	16	6	4	1	75	10	1	198	16	8	120.38	49	3
28	22	16	6	4	1	75	10	1	199	16	10	0	-1	16
28	22	16	6	4	1	75	10	1	200	6	10	728.77	49	15
28	22	16	6	4	1	75	10	1	201	6	7	23.71	49	1
28	22	16	6	4	1	75	10	1	202	6	8	325.85	49	7
28	22	16	6	4	1	75	10	1	203	16	2	22.87	49	1
28	22	16	6	4	1	75	10	1	203	16	2	223.17	49	5
28	22	16	6	4	1	75	10	1	204	6	3	731.68	49	15
28	22	16	6	4	1	75	10	1	205	16	7	19.65	49	1
28	22	16	6	4	1	75	10	1	206	6	7	0	-1	16
28	22	16	6	4	1	75	10	1	207	6	1	73.91	49	2
28	22	16	6	4	1	75	10	1	208	6	5	120.94	49	3
28	22	16	6	4	1	75	10	1	208	6	5	773.47	49	16
28	22	16	6	4	1	75	10	1	209	16	1	22.28	49	1
28	22	16	6	4	1	75	10	1	210	6	10	725.35	49	15
28	22	16	6	4	1	75	10	1	211	6	4	23.84	49	1
28	22	16	6	4	1	75	10	1	212	16	4	23.48	49	1
28	22	16	6	4	1	75	10	1	213	6	2	0	-1	16
28	22	16	6	4	1	75	10	1	214	6	9	31.8	49	1
28	22	16	6	4	1	75	10	1	214	6	9	271.11	49	6
28	22	16	6	4	1	75	10	1	215	16	5	173.03	49	4
28	22	16	6	4	1	75	10	1	216	6	3	720.8	49	15
28	22	16	6	4	1	75	10	1	217	6	6	22.57	49	1
28	22	16	6	4	1	75	10	1	218	6	8	75.11	49	2
28	22	16	6	4	1	75	10	1	218	6	8	277.3	49	6
28	22	16	6	4	1	75	10	1	219	6	6	323.32	49	7
28	22	16	6	4	1	75	10	1	220	6	4	75.3	49	2
28	22	16	6	4	1	75	10	1	220	6	4	326.76	49	7
28	22	16	6	4	1	75	10	1	221	16	9	125.19	49	3
28	22	16	6	4	1	75	10	1	222	6	9	772.25	49	16
28	22	16	6	4	1	75	10	1	223	6	10	22.62	49	1
28	22	16	6	4	1	75	10	1	223	6	10	275.93	49	6
28	22	16	6	4	1	75	10	1	224	6	1	172.75	49	4
28	22	16	6	4	1	75	10	1	225	16	3	225.42	49	5
28	22	16	6	4	1	75	10	1	226	6	2	0	-1	16
28	22	16	6	4	1	75	10	1	227	6	7	225.87	49	5
28	22	16	6	4	1	75	10	1	228	6	5	223.3	49	5
28	22	16	6	4	1	75	10	1	228	6	5	424.79	49	9
28	22	16	6	4	1	75	10	1	228	6	5	770.75	49	16
28	22	16	6	4	1	75	10	1	229	6	8	21.29	49	1
28	22	16	6	4	1	75	10	1	229	6	8	221.6	49	5
28	22	16	6	4	1	75	10	1	229	6	8	720.65	49	15
28	22	16	6	4	1	75	10	1	230	6	3	25	49	1
28	22	16	6	4	1	75	10	1	230	6	3	225.24	49	5
28	22	16	6	4	1	75	10	1	230	6	3	629	49	13
28	22	16	6	4	1	75	10	1	231	6	6	25.38	49	1
28	22	16	6	4	1	75	10	1	232	16	6	73.42	49	2
28	22	16	6	4	1	75	10	1	232	16	6	274.83	49	6
28	22	16	6	4	1	75	10	1	233	16	7	0	-1	16
28	22	16	6	4	1	75	10	1	234	6	5	723.11	49	15
28	22	16	6	4	1	75	10	1	235	6	7	22.3	49	1
28	22	16	6	4	1	75	10	1	236	16	8	121.79	49	3
28	22	16	6	4	1	75	10	1	236	16	8	322.19	49	7
28	22	16	6	4	1	75	10	1	237	6	1	321.56	49	7
28	22	16	6	4	1	75	10	1	237	6	1	573.07	49	12
28	22	16	6	4	1	75	10	1	238	6	2	29.79	49	1
28	22	16	6	4	1	75	10	1	238	6	2	271.69	49	6
28	22	16	6	4	1	75	10	1	239	6	8	22.59	49	1
28	22	16	6	4	1	75	10	1	239	6	8	273.31	49	6
28	22	16	6	4	1	75	10	1	240	6	4	271.5	49	6
28	22	16	6	4	1	75	10	1	241	6	9	71.52	49	2
28	22	16	6	4	1	75	10	1	241	6	9	275.05	49	6
28	22	16	6	4	1	75	10	1	241	6	9	721.31	49	15
28	22	16	6	4	1	75	10	1	242	6	10	26.69	49	1
28	22	16	6	4	1	75	10	1	243	6	3	174.03	49	4
28	22	16	6	4	1	75	10	1	243	6	3	374.97	49	8
28	22	16	6	4	1	75	10	1	244	16	5	69.28	49	2
28	22	16	6	4	1	75	10	1	244	16	5	272.79	49	6
28	22	16	6	4	1	75	10	1	245	6	7	0	-1	16
28	22	16	6	4	1	75	10	1	246	6	10	72.94	49	2
28	22	16	6	4	1	75	10	1	246	6	10	274.69	49	6
28	22	16	6	4	1	75	10	1	247	6	4	70.12	49	2
28	22	16	6	4	1	75	10	1	247	6	4	270.37	49	6
28	22	16	6	4	1	75	10	1	248	6	2	22.57	49	1
28	22	16	6	4	1	75	10	1	248	6	2	225.37	49	5
28	22	16	6	4	1	75	10	1	249	6	5	171.66	49	4
28	22	16	6	4	1	75	10	1	250	16	2	128.94	49	3
28	22	16	6	4	1	75	10	1	250	16	2	372.98	49	8
28	22	16	6	4	1	75	10	1	251	16	1	0	-1	16
28	22	16	6	4	1	75	10	1	252	6	1	0	-1	16
28	22	16	6	4	1	75	10	1	253	16	4	173.76	49	4
28	22	16	6	4	1	75	10	1	254	6	9	0	-1	16
28	22	16	6	4	1	75	10	1	255	6	6	21.98	49	1
28	22	16	6	4	1	75	10	1	255	6	6	222.65	49	5
28	22	16	6	4	1	75	10	1	256	6	3	70.66	49	2
28	22	16	6	4	1	75	10	1	257	6	8	69.62	49	2
28	22	16	6	4	1	75	10	1	257	6	8	273.33	49	6
28	22	16	6	4	1	75	10	1	258	6	6	375.39	49	8
28	22	16	6	4	1	75	10	1	259	6	2	131.44	49	3
28	22	16	6	4	1	75	10	1	259	6	2	369.16	49	8
28	22	16	6	4	1	75	10	1	260	6	7	19.48	49	1
28	22	16	6	4	1	75	10	1	260	6	7	524.55	49	11
28	22	16	6	4	1	75	10	1	260	6	7	726.72	49	15
28	22	16	6	4	1	75	10	1	261	16	9	22.96	49	1
28	22	16	6	4	1	75	10	1	262	6	8	0	-1	16
28	22	16	6	4	1	75	10	1	263	6	5	72.09	49	2
28	22	16	6	4	1	75	10	1	263	6	5	272.18	49	6
28	22	16	6	4	1	75	10	1	264	6	9	22.63	49	1
28	22	16	6	4	1	75	10	1	264	6	9	223.13	49	5
28	22	16	6	4	1	75	10	1	265	16	10	171.1	49	4
28	22	16	6	4	1	75	10	1	265	16	10	372.97	49	8
28	22	16	6	4	1	75	10	1	266	6	1	271.31	49	6
28	22	16	6	4	1	75	10	1	266	6	1	473.34	49	10
28	22	16	6	4	1	75	10	1	266	6	1	721.33	49	15
28	22	16	6	4	1	75	10	1	267	6	4	22.44	49	1
28	22	16	6	4	1	75	10	1	267	6	4	671.43	49	14
28	22	16	6	4	1	75	10	1	268	6	10	22.8	49	1
28	22	16	6	4	1	75	10	1	268	6	10	683.98	49	14
28	22	16	6	4	1	75	10	1	269	16	3	23.28	49	1
28	22	16	6	4	1	75	10	1	270	6	3	525.78	49	11
28	22	16	6	4	1	75	10	1	270	6	3	775.87	49	16
28	22	16	6	4	1	75	10	1	271	16	7	0	-1	16
28	22	16	6	4	1	75	10	1	272	6	6	0	-1	16
28	22	16	6	4	1	75	10	1	273	16	1	76.95	49	2
28	22	16	6	4	1	75	10	1	273	16	1	277.59	49	6
28	22	16	6	4	1	75	10	1	274	6	8	0	-1	16
28	22	16	6	4	1	75	10	1	275	6	4	126.45	49	3
28	22	16	6	4	1	75	10	1	275	6	4	771.61	49	16
28	22	16	6	4	1	75	10	1	276	16	10	23.23	49	1
28	22	16	6	4	1	75	10	1	277	6	10	772.69	49	16
28	22	16	6	4	1	75	10	1	278	6	2	25.71	49	1
28	22	16	6	4	1	75	10	1	279	6	9	122.11	49	3
28	22	16	6	4	1	75	10	1	279	6	9	323.23	49	7
28	22	16	6	4	1	75	10	1	280	6	1	173.33	49	4
28	22	16	6	4	1	75	10	1	280	6	1	422.72	49	9
28	22	16	6	4	1	75	10	1	281	6	5	271.82	49	6
28	22	16	6	4	1	75	10	1	282	6	7	30.48	49	1
28	22	16	6	4	1	75	10	1	283	6	3	220.99	49	5
28	22	16	6	4	1	75	10	1	283	6	3	423.16	49	9
28	22	16	6	4	1	75	10	1	284	6	2	171.11	49	4
28	22	16	6	4	1	75	10	1	284	6	2	375.29	49	8
28	22	16	6	4	1	75	10	1	285	6	10	423.87	49	9
28	22	16	6	4	1	75	10	1	286	6	9	74.14	49	2
28	22	16	6	4	1	75	10	1	286	6	9	321.88	49	7
28	22	16	6	4	1	75	10	1	287	6	8	368.74	49	8
28	22	16	6	4	1	75	10	1	287	6	8	572.75	49	12
28	22	16	6	4	1	75	10	1	288	16	9	222.75	49	5
28	22	16	6	4	1	75	10	1	289	6	5	674.59	49	14
28	22	16	6	4	1	75	10	1	290	6	1	22.51	49	1
28	22	16	6	4	1	75	10	1	291	6	7	127.76	49	3
28	22	16	6	4	1	75	10	1	291	6	7	376.11	49	8
28	22	16	6	4	1	75	10	1	291	6	7	776.64	49	16
28	22	16	6	4	1	75	10	1	292	16	2	22.24	49	1
28	22	16	6	4	1	75	10	1	292	16	2	223.05	49	5
28	22	16	6	4	1	75	10	1	293	6	3	0	-1	16
28	22	16	6	4	1	75	10	1	294	6	6	25.41	49	1
28	22	16	6	4	1	75	10	1	294	6	6	271.37	49	6
28	22	16	6	4	1	75	10	1	295	6	4	325.59	49	7
28	22	16	6	4	1	75	10	1	295	6	4	775.98	49	16
28	22	16	6	4	1	75	10	1	296	16	5	26.62	49	1
28	22	16	6	4	1	75	10	1	296	16	5	275.27	49	6
28	22	16	6	4	1	75	10	1	297	16	4	0	-1	16
28	22	16	6	4	1	75	10	1	298	6	2	0	-1	16
28	22	16	6	4	1	75	10	1	299	6	9	78.17	49	2
28	22	16	6	4	1	75	10	1	299	6	9	323.6	49	7
28	22	16	6	4	1	75	10	1	300	6	10	174.35	49	4
28	22	16	6	4	1	75	10	1	300	6	10	374.45	49	8
28	22	16	6	4	1	75	10	1	301	16	6	74.1	49	2
28	22	16	6	4	1	75	10	1	301	16	6	326.4	49	7
28	22	16	6	4	1	75	10	1	302	6	1	24.21	49	1
28	22	16	6	4	1	75	10	1	302	6	1	273.5	49	6
28	22	16	6	4	1	75	10	1	302	6	1	671.47	49	14
28	22	16	6	4	1	75	10	1	303	6	8	23.3	49	1
28	22	16	6	4	1	75	10	1	303	6	8	774.31	49	16
28	22	16	6	4	1	75	10	1	304	16	3	22.32	49	1
28	22	16	6	4	1	75	10	1	304	16	3	222.54	49	5
28	22	16	6	4	1	75	10	1	305	6	6	0	-1	16
28	22	16	6	4	1	75	10	1	306	16	8	22.75	49	1
28	22	16	6	4	1	75	10	1	306	16	8	273.28	49	6
28	22	16	6	4	1	75	10	1	307	6	7	0	-1	16
28	22	16	6	4	1	75	10	1	308	6	3	27.75	49	1
28	22	16	6	4	1	75	10	1	308	6	3	272.69	49	6
28	22	16	6	4	1	75	10	1	309	16	7	224.04	49	5
28	22	16	6	4	1	75	10	1	309	16	7	471.86	49	10
28	22	16	6	4	1	75	10	1	310	16	1	0	-1	16
28	22	16	6	4	1	75	10	1	311	6	5	73.31	49	2
28	22	16	6	4	1	75	10	1	311	6	5	325.09	49	7
28	22	16	6	4	1	75	10	1	311	6	5	631.04	49	13
28	22	16	6	4	1	75	10	1	312	6	4	26.43	49	1
28	22	16	6	4	1	75	10	1	313	6	7	25.23	49	1
28	22	16	6	4	1	75	10	1	313	6	7	276.65	49	6
28	22	16	6	4	1	75	10	1	314	16	9	120.68	49	3
28	22	16	6	4	1	75	10	1	314	16	9	326.54	49	7
28	22	16	6	4	1	75	10	1	315	6	9	771.22	49	16
28	22	16	6	4	1	75	10	1	316	16	4	21.74	49	1
28	22	16	6	4	1	75	10	1	317	6	2	0	-1	16
28	22	16	6	4	1	75	10	1	318	6	4	123.97	49	3
28	22	16	6	4	1	75	10	1	319	16	5	171.45	49	4
28	22	16	6	4	1	75	10	1	320	6	5	672.87	49	14
28	22	16	6	4	1	75	10	1	321	6	1	23.71	49	1
28	22	16	6	4	1	75	10	1	322	6	10	172.71	49	4
28	22	16	6	4	1	75	10	1	323	16	10	72.99	49	2
28	22	16	6	4	1	75	10	1	323	16	10	274.75	49	6
28	22	16	6	4	1	75	10	1	324	16	2	0	-1	16
28	22	16	6	4	1	75	10	1	325	6	6	0	-1	16
28	22	16	6	4	1	75	10	1	326	6	3	30.79	49	1
28	22	16	6	4	1	75	10	1	327	6	8	125.34	49	3
28	22	16	6	4	1	75	10	1	327	6	8	327.41	49	7
28	22	16	6	4	1	75	10	1	328	6	5	224.43	49	5
28	22	16	6	4	1	75	10	1	328	6	5	723.41	49	15
28	22	16	6	4	1	75	10	1	329	6	10	23.44	49	1
28	22	16	6	4	1	75	10	1	330	6	4	120.83	49	3
28	22	16	6	4	1	75	10	1	330	6	4	372.78	49	8
28	22	16	6	4	1	75	10	1	331	6	9	171.77	49	4
28	22	16	6	4	1	75	10	1	331	6	9	372.69	49	8
28	22	16	6	4	1	75	10	1	332	6	2	124.85	49	3
28	22	16	6	4	1	75	10	1	332	6	2	370.73	49	8
28	22	16	6	4	1	75	10	1	333	6	8	273.5	49	6
28	22	16	6	4	1	75	10	1	334	6	7	222.89	49	5
28	22	16	6	4	1	75	10	1	334	6	7	473.23	49	10
28	22	16	6	4	1	75	10	1	335	6	3	272.85	49	6
28	22	16	6	4	1	75	10	1	335	6	3	770.48	49	16
28	22	16	6	4	1	75	10	1	336	6	6	22.65	49	1
28	22	16	6	4	1	75	10	1	337	6	1	76.14	49	2
28	22	16	6	4	1	75	10	1	338	6	7	29.65	49	1
28	22	16	6	4	1	75	10	1	338	6	7	275.89	49	6
28	22	16	6	4	1	75	10	1	339	6	9	125.83	49	3
28	22	16	6	4	1	75	10	1	339	6	9	371.72	49	8
28	22	16	6	4	1	75	10	1	340	6	4	223.56	49	5
28	22	16	6	4	1	75	10	1	341	6	10	268.83	49	6
28	22	16	6	4	1	75	10	1	342	6	5	74.9	49	2
28	22	16	6	4	1	75	10	1	342	6	5	323.12	49	7
28	22	16	6	4	1	75	10	1	343	16	6	25.44	49	1
28	22	16	6	4	1	75	10	1	343	16	6	272.46	49	6
28	22	16	6	4	1	75	10	1	344	16	3	175.54	49	4
28	22	16	6	4	1	75	10	1	344	16	3	623.87	49	13
28	22	16	6	4	1	75	10	1	345	16	8	72.11	49	2
28	22	16	6	4	1	75	10	1	346	6	2	0	-1	16
28	22	16	6	4	1	75	10	1	347	16	2	71.58	49	2
28	22	16	6	4	1	75	10	1	348	6	1	0	-1	16
28	22	16	6	4	1	75	10	1	349	6	3	22.86	49	1
28	22	16	6	4	1	75	10	1	349	6	3	775.47	49	16
28	22	16	6	4	1	75	10	1	350	6	6	71.63	49	2
28	22	16	6	4	1	75	10	1	351	6	8	71.27	49	2
28	22	16	6	4	1	75	10	1	352	6	2	171.37	49	4
28	22	16	6	4	1	75	10	1	352	6	2	372.41	49	8
28	22	16	6	4	1	75	10	1	353	6	9	123.48	49	3
28	22	16	6	4	1	75	10	1	353	6	9	375.95	49	8
28	22	16	6	4	1	75	10	1	354	6	10	20.61	49	1
28	22	16	6	4	1	75	10	1	354	6	10	276.63	49	6
28	22	16	6	4	1	75	10	1	355	6	7	323.55	49	7
28	22	16	6	4	1	75	10	1	356	16	9	72.28	49	2
28	22	16	6	4	1	75	10	1	356	16	9	322.77	49	7
28	22	16	6	4	1	75	10	1	357	6	1	0	-1	16
28	22	16	6	4	1	75	10	1	358	6	6	71.48	49	2
28	22	16	6	4	1	75	10	1	358	6	6	322.84	49	7
28	22	16	6	4	1	75	10	1	359	6	5	170.73	49	4
28	22	16	6	4	1	75	10	1	359	6	5	371.28	49	8
28	22	16	6	4	1	75	10	1	360	6	8	170.29	49	4
28	22	16	6	4	1	75	10	1	360	6	8	371.43	49	8
28	22	16	6	4	1	75	10	1	361	6	3	72.49	49	2
28	22	16	6	4	1	75	10	1	361	6	3	320.47	49	7
28	22	16	6	4	1	75	10	1	362	6	4	231.06	49	5
28	22	16	6	4	1	75	10	1	363	6	5	220.2	49	5
28	22	16	6	4	1	75	10	1	363	6	5	422.03	49	9
28	22	16	6	4	1	75	10	1	364	6	2	220.22	49	5
28	22	16	6	4	1	75	10	1	364	6	2	425.35	49	9
28	22	16	6	4	1	75	10	1	365	16	10	174.97	49	4
28	22	16	6	4	1	75	10	1	366	6	10	320.69	49	7
28	22	16	6	4	1	75	10	1	367	6	9	121.04	49	3
28	22	16	6	4	1	75	10	1	368	6	4	379.4	49	8
28	22	16	6	4	1	75	10	1	369	6	3	119.18	49	3
28	22	16	6	4	1	75	10	1	369	6	3	324.33	49	7
28	22	16	6	4	1	75	10	1	370	6	8	173.66	49	4
28	22	16	6	4	1	75	10	1	371	6	7	273.59	49	6
28	22	16	6	4	1	75	10	1	372	6	6	22.9	49	1
28	22	16	6	4	1	75	10	1	373	6	1	23.5	49	1
28	22	16	6	4	1	75	10	1	374	6	2	70.66	49	2
28	22	16	6	4	1	75	10	1	374	6	2	273.19	49	6
28	22	16	6	4	1	75	10	1	375	6	10	22.48	49	1
28	22	16	6	4	1	75	10	1	375	6	10	223.07	49	5
28	22	16	6	4	1	75	10	1	376	6	9	21.35	49	1
28	22	16	6	4	1	75	10	1	376	6	9	221.58	49	5
28	22	16	6	4	1	75	10	1	377	6	7	222.59	49	5
28	22	16	6	4	1	75	10	1	378	16	7	181.47	49	4
28	22	16	6	4	1	75	10	1	379	16	3	0	-1	16
28	22	16	6	4	1	75	10	1	380	16	5	225.18	49	5
28	22	16	6	4	1	75	10	1	380	16	5	425.82	49	9
28	22	16	6	4	1	75	10	1	381	6	5	775.89	49	16
28	22	16	6	4	1	75	10	1	382	16	6	19.77	49	1
28	22	16	6	4	1	75	10	1	383	6	8	0	-1	16
28	22	16	6	4	1	75	10	1	384	6	1	127.17	49	3
28	22	16	6	4	1	75	10	1	385	6	6	171.1	49	4
28	22	16	6	4	1	75	10	1	385	6	6	373.83	49	8
28	22	16	6	4	1	75	10	1	385	6	6	773.75	49	16
28	22	16	6	4	1	75	10	1	386	6	3	21.69	49	1
28	22	16	6	4	1	75	10	1	387	16	8	123.56	49	3
28	22	16	6	4	1	75	10	1	387	16	8	421.29	49	9
28	22	16	6	4	1	75	10	1	388	6	4	0	-1	16
28	22	16	6	4	1	75	10	1	389	6	7	171.15	49	4
28	22	16	6	4	1	75	10	1	389	6	7	375.58	49	8
28	22	16	6	4	1	75	10	1	390	6	1	325.53	49	7
28	22	16	6	4	1	75	10	1	391	6	2	472.29	49	10
28	22	16	6	4	1	75	10	1	392	6	5	175.15	49	4
28	22	16	6	4	1	75	10	1	392	6	5	422.86	49	9
28	22	16	6	4	1	75	10	1	392	6	5	730.29	49	15
28	22	16	6	4	1	75	10	1	393	16	1	23.27	49	1
28	22	16	6	4	1	75	10	1	393	16	1	225.06	49	5
28	22	16	6	4	1	75	10	1	394	6	10	0	-1	16
28	22	16	6	4	1	75	10	1	395	16	4	218.73	49	5
28	22	16	6	4	1	75	10	1	395	16	4	424.39	49	9
28	22	16	6	4	1	75	10	1	396	6	4	221.67	49	5
28	22	16	6	4	1	75	10	1	397	6	9	222.49	49	5
28	22	16	6	4	1	75	10	1	397	6	9	473.61	49	10
28	22	16	6	4	1	75	10	1	398	6	6	223.1	49	5
28	22	16	6	4	1	75	10	1	398	6	6	423.11	49	9
28	22	16	6	4	1	75	10	1	399	6	3	273.31	49	6
28	22	16	6	4	1	75	10	1	399	6	3	522.96	49	11
28	22	16	6	4	1	75	10	1	400	6	8	23.69	49	1
28	22	16	6	4	1	75	10	1	400	6	8	271.78	49	6
28	22	16	6	4	1	75	10	1	401	16	5	123.1	49	3
28	22	16	6	4	1	75	10	1	402	6	6	128.61	49	3
28	22	16	6	4	1	75	10	1	402	6	6	770.94	49	16
28	22	16	6	4	1	75	10	1	403	16	9	22.02	49	1
28	22	16	6	4	1	75	10	1	403	16	9	271.16	49	6
28	22	16	6	4	1	75	10	1	404	6	10	784.64	49	16
28	22	16	6	4	1	75	10	1	405	6	9	22.33	49	1
28	22	16	6	4	1	75	10	1	405	6	9	270.04	49	6
28	22	16	6	4	1	75	10	1	406	16	2	70.7	49	2
28	22	16	6	4	1	75	10	1	406	16	2	275.14	49	6
28	22	16	6	4	1	75	10	1	407	16	10	0	-1	16
28	22	16	6	4	1	75	10	1	408	6	5	0	-1	16
28	22	16	6	4	1	75	10	1	409	16	4	128.14	49	3
28	22	16	6	4	1	75	10	1	410	16	6	0	-1	16
28	22	16	6	4	1	75	10	1	411	6	7	0	-1	16
28	22	16	6	4	1	75	10	1	412	16	7	224.27	49	5
28	22	16	6	4	1	75	10	1	413	6	4	726.21	49	15
28	22	16	6	4	1	75	10	1	414	16	8	23.85	49	1
28	22	16	6	4	1	75	10	1	415	6	2	0	-1	16
28	22	16	6	4	1	75	10	1	416	6	1	23.8	49	1
28	22	16	6	4	1	75	10	1	417	6	8	22.62	49	1
28	22	16	6	4	1	75	10	1	417	6	8	223.18	49	5
28	22	16	6	4	1	75	10	1	418	6	3	122.71	49	3
28	22	16	6	4	1	75	10	1	418	6	3	372.86	49	8
28	22	16	6	4	1	75	10	1	419	6	2	121.59	49	3
28	22	16	6	4	1	75	10	1	419	6	2	322.55	49	7
28	22	16	6	4	1	75	10	1	420	6	10	172.99	49	4
28	22	16	6	4	1	75	10	1	420	6	10	422.67	49	9
28	22	16	6	4	1	75	10	1	420	6	10	721.44	49	15
28	22	16	6	4	1	75	10	1	421	16	3	21.99	49	1
28	22	16	6	4	1	75	10	1	422	6	9	778.83	49	16
28	22	16	6	4	1	75	10	1	423	16	1	28.38	49	1
28	22	16	6	4	1	75	10	1	423	16	1	273.97	49	6
28	22	16	6	4	1	75	10	1	424	6	7	0	-1	16
28	22	16	6	4	1	75	10	1	425	6	6	272.31	49	6
28	22	16	6	4	1	75	10	1	426	16	6	25.82	49	1
28	22	16	6	4	1	75	10	1	426	16	6	272.95	49	6
28	22	16	6	4	1	75	10	1	427	6	5	676.74	49	14
28	22	16	6	4	1	75	10	1	428	16	7	22.4	49	1
28	22	16	6	4	1	75	10	1	429	6	8	0	-1	16
28	22	16	6	4	1	75	10	1	430	6	1	126.03	49	3
28	22	16	6	4	1	75	10	1	430	6	1	372.78	49	8
28	22	16	6	4	1	75	10	1	431	16	1	330.6	49	7
28	22	16	6	4	1	75	10	1	431	16	1	570.8	49	12
28	22	16	6	4	1	75	10	1	432	6	3	0	-1	16
28	22	16	6	4	1	75	10	1	433	6	4	320.39	49	7
28	22	16	6	4	1	75	10	1	434	6	6	275.91	49	6
28	22	16	6	4	1	75	10	1	434	6	6	521.26	49	11
28	22	16	6	4	1	75	10	1	435	6	1	271.42	49	6
28	22	16	6	4	1	75	10	1	435	6	1	472.86	49	10
28	22	16	6	4	1	75	10	1	436	6	4	128.38	49	3
28	22	16	6	4	1	75	10	1	436	6	4	774.83	49	16
28	22	16	6	4	1	75	10	1	437	6	10	23.15	49	1
28	22	16	6	4	1	75	10	1	437	6	10	769.32	49	16
28	22	16	6	4	1	75	10	1	438	6	5	24.74	49	1
28	22	16	6	4	1	75	10	1	439	16	10	123.92	49	3
28	22	16	6	4	1	75	10	1	440	6	7	0	-1	16
28	22	16	6	4	1	75	10	1	441	6	2	74.91	49	2
28	22	16	6	4	1	75	10	1	442	6	9	275.55	49	6
28	22	16	6	4	1	75	10	1	443	6	8	120.17	49	3
28	22	16	6	4	1	75	10	1	444	6	3	126.16	49	3
28	22	16	6	4	1	75	10	1	445	6	5	120.37	49	3
28	22	16	6	4	1	75	10	1	445	6	5	322.81	49	7
28	22	16	6	4	1	75	10	1	446	6	4	22.52	49	1
28	22	16	6	4	1	75	10	1	446	6	4	222.97	49	5
28	22	16	6	4	1	75	10	1	447	6	9	75.9	49	2
28	22	16	6	4	1	75	10	1	448	6	2	76.89	49	2
28	22	16	6	4	1	75	10	1	448	6	2	321.55	49	7
28	22	16	6	4	1	75	10	1	449	6	10	221.63	49	5
28	22	16	6	4	1	75	10	1	449	6	10	772.32	49	16
28	22	16	6	4	1	75	10	1	450	6	8	22.17	49	1
