SubjectNum	Age	Gender	PressedTask	Block Type	Block Repeat Num	Response Rate	Onset	Block	Trial	ImgType	ImgNum	RT	PressedC	FrameC
28	22	16	6	4	1	75	10	1	1	6	5	608.86	49	11
28	22	16	6	4	1	75	10	1	2	6	10	726.25	49	15
28	22	16	6	4	1	75	10	1	3	6	4	72.11	49	2
28	22	16	6	4	1	75	10	1	3	6	4	769.71	49	16
28	22	16	6	4	1	75	10	1	4	6	9	20.99	49	1
28	22	16	6	4	1	75	10	1	4	6	9	223.32	49	5
28	22	16	6	4	1	75	10	1	5	16	7	81.35	49	2
28	22	16	6	4	1	75	10	1	5	16	7	322.96	49	7
28	22	16	6	4	1	75	10	1	6	6	2	726.68	49	15
28	22	16	6	4	1	75	10	1	7	6	3	26.88	49	1
28	22	16	6	4	1	75	10	1	7	6	3	725.91	49	15
28	22	16	6	4	1	75	10	1	8	16	9	26.87	49	1
28	22	16	6	4	1	75	10	1	9	6	8	579.12	49	12
28	22	16	6	4	1	75	10	1	10	16	2	24.72	49	1
28	22	16	6	4	1	75	10	1	11	6	7	0	-1	16
28	22	16	6	4	1	75	10	1	12	6	6	79.58	49	2
28	22	16	6	4	1	75	10	1	12	6	6	326.64	49	7
28	22	16	6	4	1	75	10	1	13	6	1	73.29	49	2
28	22	16	6	4	1	75	10	1	13	6	1	321.38	49	7
28	22	16	6	4	1	75	10	1	14	16	5	72.52	49	2
28	22	16	6	4	1	75	10	1	14	16	5	275.43	49	6
28	22	16	6	4	1	75	10	1	15	6	5	670.9	49	14
28	22	16	6	4	1	75	10	1	16	6	2	22.72	49	1
28	22	16	6	4	1	75	10	1	17	6	4	70.81	49	2
28	22	16	6	4	1	75	10	1	18	6	9	22.47	49	1
28	22	16	6	4	1	75	10	1	18	6	9	721.42	49	15
28	22	16	6	4	1	75	10	1	19	6	10	26.36	49	1
28	22	16	6	4	1	75	10	1	19	6	10	671.2	49	14
28	22	16	6	4	1	75	10	1	20	16	1	26.76	49	1
28	22	16	6	4	1	75	10	1	20	16	1	623.64	49	13
28	22	16	6	4	1	75	10	1	21	6	3	22.62	49	1
28	22	16	6	4	1	75	10	1	21	6	3	223.01	49	5
28	22	16	6	4	1	75	10	1	21	6	3	573.37	49	12
28	22	16	6	4	1	75	10	1	22	16	10	26.16	49	1
28	22	16	6	4	1	75	10	1	22	16	10	723.92	49	15
28	22	16	6	4	1	75	10	1	23	6	7	22.81	49	1
28	22	16	6	4	1	75	10	1	23	6	7	223.92	49	5
28	22	16	6	4	1	75	10	1	23	6	7	671.65	49	14
28	22	16	6	4	1	75	10	1	24	16	4	26.99	49	1
28	22	16	6	4	1	75	10	1	25	6	8	769.25	49	16
28	22	16	6	4	1	75	10	1	26	16	3	25.58	49	1
28	22	16	6	4	1	75	10	1	27	6	6	0	-1	16
28	22	16	6	4	1	75	10	1	28	6	1	22.43	49	1
28	22	16	6	4	1	75	10	1	29	6	6	224.45	49	5
28	22	16	6	4	1	75	10	1	29	6	6	771.43	49	16
28	22	16	6	4	1	75	10	1	30	6	1	23.23	49	1
28	22	16	6	4	1	75	10	1	30	6	1	772.39	49	16
28	22	16	6	4	1	75	10	1	31	16	6	21.8	49	1
28	22	16	6	4	1	75	10	1	32	6	9	722.73	49	15
28	22	16	6	4	1	75	10	1	33	6	8	22.77	49	1
28	22	16	6	4	1	75	10	1	33	6	8	224.06	49	5
28	22	16	6	4	1	75	10	1	34	6	10	321.1	49	7
28	22	16	6	4	1	75	10	1	35	16	8	26.65	49	1
28	22	16	6	4	1	75	10	1	35	16	8	275.34	49	6
28	22	16	6	4	1	75	10	1	36	6	7	0	-1	16
28	22	16	6	4	1	75	10	1	37	6	4	25.66	49	1
28	22	16	6	4	1	75	10	1	37	6	4	276.36	49	6
28	22	16	6	4	1	75	10	1	38	6	2	126.15	49	3
28	22	16	6	4	1	75	10	1	38	6	2	373.3	49	8
28	22	16	6	4	1	75	10	1	39	6	5	471.82	49	10
28	22	16	6	4	1	75	10	1	40	16	7	0	-1	16
28	22	16	6	4	1	75	10	1	41	16	4	0	-1	16
28	22	16	6	4	1	75	10	1	42	6	3	0	-1	16
28	22	16	6	4	1	75	10	1	43	6	7	73.51	49	2
28	22	16	6	4	1	75	10	1	43	6	7	325.78	49	7
28	22	16	6	4	1	75	10	1	44	6	5	222.16	49	5
28	22	16	6	4	1	75	10	1	44	6	5	423.59	49	9
28	22	16	6	4	1	75	10	1	45	6	2	122.11	49	3
28	22	16	6	4	1	75	10	1	45	6	2	326.83	49	7
28	22	16	6	4	1	75	10	1	46	6	1	22.69	49	1
28	22	16	6	4	1	75	10	1	46	6	1	222.83	49	5
28	22	16	6	4	1	75	10	1	47	6	9	173.36	49	4
28	22	16	6	4	1	75	10	1	47	6	9	421.31	49	9
28	22	16	6	4	1	75	10	1	48	6	4	23.88	49	1
28	22	16	6	4	1	75	10	1	48	6	4	272.5	49	6
28	22	16	6	4	1	75	10	1	49	16	5	121.64	49	3
28	22	16	6	4	1	75	10	1	49	16	5	373.14	49	8
28	22	16	6	4	1	75	10	1	50	16	1	630.62	49	13
28	22	16	6	4	1	75	10	1	51	6	10	24.7	49	1
28	22	16	6	4	1	75	10	1	51	6	10	275.07	49	6
28	22	16	6	4	1	75	10	1	52	6	6	26.19	49	1
28	22	16	6	4	1	75	10	1	52	6	6	227.04	49	5
28	22	16	6	4	1	75	10	1	53	6	3	173.51	49	4
28	22	16	6	4	1	75	10	1	53	6	3	419.16	49	9
28	22	16	6	4	1	75	10	1	54	6	8	23.29	49	1
28	22	16	6	4	1	75	10	1	54	6	8	272.86	49	6
28	22	16	6	4	1	75	10	1	55	16	2	174.48	49	4
28	22	16	6	4	1	75	10	1	55	16	2	424.52	49	9
28	22	16	6	4	1	75	10	1	56	6	2	326.4	49	7
28	22	16	6	4	1	75	10	1	56	6	2	573.82	49	12
28	22	16	6	4	1	75	10	1	57	6	10	777.28	49	16
28	22	16	6	4	1	75	10	1	58	6	9	22.1	49	1
28	22	16	6	4	1	75	10	1	58	6	9	225.68	49	5
28	22	16	6	4	1	75	10	1	59	16	10	129.88	49	3
28	22	16	6	4	1	75	10	1	59	16	10	370.8	49	8
28	22	16	6	4	1	75	10	1	60	6	1	622.61	49	13
28	22	16	6	4	1	75	10	1	61	6	8	21.65	49	1
28	22	16	6	4	1	75	10	1	61	6	8	775.72	49	16
28	22	16	6	4	1	75	10	1	62	6	3	21.6	49	1
28	22	16	6	4	1	75	10	1	62	6	3	225.67	49	5
28	22	16	6	4	1	75	10	1	62	6	3	773.88	49	16
28	22	16	6	4	1	75	10	1	63	6	6	22.18	49	1
28	22	16	6	4	1	75	10	1	63	6	6	225.88	49	5
28	22	16	6	4	1	75	10	1	64	6	5	27.07	49	1
28	22	16	6	4	1	75	10	1	64	6	5	276.64	49	6
28	22	16	6	4	1	75	10	1	65	6	7	121.54	49	3
28	22	16	6	4	1	75	10	1	65	6	7	371.26	49	8
28	22	16	6	4	1	75	10	1	66	6	4	274.56	49	6
28	22	16	6	4	1	75	10	1	67	6	7	73.48	49	2
28	22	16	6	4	1	75	10	1	67	6	7	273.76	49	6
28	22	16	6	4	1	75	10	1	68	6	4	423.63	49	9
28	22	16	6	4	1	75	10	1	69	6	10	173.32	49	4
28	22	16	6	4	1	75	10	1	69	6	10	421.4	49	9
28	22	16	6	4	1	75	10	1	70	6	2	22.23	49	1
28	22	16	6	4	1	75	10	1	70	6	2	222.49	49	5
28	22	16	6	4	1	75	10	1	71	6	1	124.07	49	3
28	22	16	6	4	1	75	10	1	71	6	1	374.54	49	8
28	22	16	6	4	1	75	10	1	71	6	1	770.96	49	16
28	22	16	6	4	1	75	10	1	72	6	9	22.77	49	1
28	22	16	6	4	1	75	10	1	72	6	9	222.97	49	5
28	22	16	6	4	1	75	10	1	72	6	9	773.14	49	16
28	22	16	6	4	1	75	10	1	73	6	5	24.1	49	1
28	22	16	6	4	1	75	10	1	74	6	6	22.44	49	1
28	22	16	6	4	1	75	10	1	74	6	6	722.9	49	15
28	22	16	6	4	1	75	10	1	75	6	3	22.06	49	1
28	22	16	6	4	1	75	10	1	75	6	3	779.71	49	16
28	22	16	6	4	1	75	10	1	76	6	8	26.47	49	1
28	22	16	6	4	1	75	10	1	76	6	8	271.34	49	6
28	22	16	6	4	1	75	10	1	76	6	8	722.87	49	15
28	22	16	6	4	1	75	10	1	77	6	5	22.74	49	1
28	22	16	6	4	1	75	10	1	77	6	5	225.03	49	5
28	22	16	6	4	1	75	10	1	77	6	5	777.25	49	16
28	22	16	6	4	1	75	10	1	78	16	9	23.89	49	1
28	22	16	6	4	1	75	10	1	79	16	6	772.35	49	16
28	22	16	6	4	1	75	10	1	80	16	3	24.93	49	1
28	22	16	6	4	1	75	10	1	81	16	8	0	-1	16
28	22	16	6	4	1	75	10	1	82	6	4	0	-1	16
28	22	16	6	4	1	75	10	1	83	16	7	27.47	49	1
28	22	16	6	4	1	75	10	1	84	6	10	774.99	49	16
28	22	16	6	4	1	75	10	1	85	6	2	21.87	49	1
28	22	16	6	4	1	75	10	1	86	6	9	78.62	49	2
28	22	16	6	4	1	75	10	1	87	6	7	122.86	49	3
28	22	16	6	4	1	75	10	1	87	6	7	774.16	49	16
28	22	16	6	4	1	75	10	1	88	6	8	24.27	49	1
28	22	16	6	4	1	75	10	1	89	6	6	171.63	49	4
28	22	16	6	4	1	75	10	1	90	6	3	23.99	49	1
28	22	16	6	4	1	75	10	1	90	6	3	275.17	49	6
28	22	16	6	4	1	75	10	1	90	6	3	775.9	49	16
28	22	16	6	4	1	75	10	1	91	6	1	23.96	49	1
28	22	16	6	4	1	75	10	1	92	6	7	169.95	49	4
28	22	16	6	4	1	75	10	1	92	6	7	374.62	49	8
28	22	16	6	4	1	75	10	1	93	16	9	71.98	49	2
28	22	16	6	4	1	75	10	1	94	6	5	622.82	49	13
28	22	16	6	4	1	75	10	1	95	6	2	0	-1	16
28	22	16	6	4	1	75	10	1	96	6	1	21.9	49	1
28	22	16	6	4	1	75	10	1	97	6	9	71.99	49	2
28	22	16	6	4	1	75	10	1	97	6	9	272.31	49	6
28	22	16	6	4	1	75	10	1	98	16	2	121.89	49	3
28	22	16	6	4	1	75	10	1	98	16	2	325.68	49	7
28	22	16	6	4	1	75	10	1	99	6	4	771.03	49	16
28	22	16	6	4	1	75	10	1	100	16	4	22.12	49	1
28	22	16	6	4	1	75	10	1	101	6	10	0	-1	16
28	22	16	6	4	1	75	10	1	102	6	3	71.11	49	2
28	22	16	6	4	1	75	10	1	102	6	3	274.19	49	6
28	22	16	6	4	1	75	10	1	103	6	6	227.24	49	5
28	22	16	6	4	1	75	10	1	104	6	8	25.97	49	1
28	22	16	6	4	1	75	10	1	104	6	8	271.19	49	6
28	22	16	6	4	1	75	10	1	105	6	5	176.08	49	4
28	22	16	6	4	1	75	10	1	105	6	5	376.16	49	8
28	22	16	6	4	1	75	10	1	106	6	9	172.42	49	4
28	22	16	6	4	1	75	10	1	107	16	10	228.3	49	5
28	22	16	6	4	1	75	10	1	108	6	4	626.43	49	13
28	22	16	6	4	1	75	10	1	109	16	1	22.79	49	1
28	22	16	6	4	1	75	10	1	110	6	2	0	-1	16
28	22	16	6	4	1	75	10	1	111	6	10	29.61	49	1
28	22	16	6	4	1	75	10	1	111	6	10	276.19	49	6
28	22	16	6	4	1	75	10	1	112	6	6	72.75	49	2
28	22	16	6	4	1	75	10	1	113	16	5	79.59	49	2
28	22	16	6	4	1	75	10	1	114	6	3	721.96	49	15
28	22	16	6	4	1	75	10	1	115	6	7	23.66	49	1
28	22	16	6	4	1	75	10	1	116	16	3	71.34	49	2
28	22	16	6	4	1	75	10	1	116	16	3	273.1	49	6
28	22	16	6	4	1	75	10	1	117	16	6	721.51	49	15
28	22	16	6	4	1	75	10	1	118	16	8	22.9	49	1
28	22	16	6	4	1	75	10	1	118	16	8	271.37	49	6
28	22	16	6	4	1	75	10	1	118	16	8	575.43	49	12
28	22	16	6	4	1	75	10	1	119	6	8	27.35	49	1
28	22	16	6	4	1	75	10	1	120	6	1	71.37	49	2
28	22	16	6	4	1	75	10	1	120	6	1	327.43	49	7
28	22	16	6	4	1	75	10	1	121	16	5	126.59	49	3
28	22	16	6	4	1	75	10	1	121	16	5	374.17	49	8
28	22	16	6	4	1	75	10	1	122	6	5	771.3	49	16
28	22	16	6	4	1	75	10	1	123	6	2	27.35	49	1
28	22	16	6	4	1	75	10	1	123	6	2	272.73	49	6
28	22	16	6	4	1	75	10	1	124	16	4	175.35	49	4
28	22	16	6	4	1	75	10	1	124	16	4	730.16	49	15
28	22	16	6	4	1	75	10	1	125	16	9	22.56	49	1
28	22	16	6	4	1	75	10	1	125	16	9	223.37	49	5
28	22	16	6	4	1	75	10	1	126	16	10	123.79	49	3
28	22	16	6	4	1	75	10	1	126	16	10	373.7	49	8
28	22	16	6	4	1	75	10	1	127	6	10	771.42	49	16
28	22	16	6	4	1	75	10	1	128	16	2	23.34	49	1
28	22	16	6	4	1	75	10	1	128	16	2	223.38	49	5
28	22	16	6	4	1	75	10	1	129	16	6	0	-1	16
28	22	16	6	4	1	75	10	1	130	16	8	0	-1	16
28	22	16	6	4	1	75	10	1	131	16	7	0	-1	16
28	22	16	6	4	1	75	10	1	132	6	9	775.9	49	16
28	22	16	6	4	1	75	10	1	133	6	4	19.74	49	1
28	22	16	6	4	1	75	10	1	133	6	4	223.25	49	5
28	22	16	6	4	1	75	10	1	133	6	4	771.28	49	16
28	22	16	6	4	1	75	10	1	134	6	8	26.12	49	1
28	22	16	6	4	1	75	10	1	135	6	7	324.41	49	7
28	22	16	6	4	1	75	10	1	136	6	3	124.32	49	3
28	22	16	6	4	1	75	10	1	136	6	3	370.74	49	8
28	22	16	6	4	1	75	10	1	137	6	6	73.84	49	2
28	22	16	6	4	1	75	10	1	137	6	6	323.76	49	7
28	22	16	6	4	1	75	10	1	137	6	6	773.89	49	16
28	22	16	6	4	1	75	10	1	138	6	1	23.98	49	1
28	22	16	6	4	1	75	10	1	138	6	1	275.45	49	6
28	22	16	6	4	1	75	10	1	139	16	3	22.83	49	1
28	22	16	6	4	1	75	10	1	139	16	3	223.26	49	5
28	22	16	6	4	1	75	10	1	140	16	1	0	-1	16
28	22	16	6	4	1	75	10	1	141	16	6	75.45	49	2
28	22	16	6	4	1	75	10	1	141	16	6	322.81	49	7
28	22	16	6	4	1	75	10	1	142	6	7	0	-1	16
28	22	16	6	4	1	75	10	1	143	6	2	121.16	49	3
28	22	16	6	4	1	75	10	1	143	6	2	325.63	49	7
28	22	16	6	4	1	75	10	1	144	16	10	223.83	49	5
28	22	16	6	4	1	75	10	1	144	16	10	770.9	49	16
28	22	16	6	4	1	75	10	1	145	6	10	25.01	49	1
28	22	16	6	4	1	75	10	1	145	6	10	324.92	49	7
28	22	16	6	4	1	75	10	1	145	6	10	771.94	49	16
28	22	16	6	4	1	75	10	1	146	6	4	23	49	1
28	22	16	6	4	1	75	10	1	146	6	4	224.67	49	5
28	22	16	6	4	1	75	10	1	146	6	4	720.78	49	15
28	22	16	6	4	1	75	10	1	147	6	5	28.64	49	1
28	22	16	6	4	1	75	10	1	148	6	1	225.41	49	5
28	22	16	6	4	1	75	10	1	149	6	9	221.37	49	5
28	22	16	6	4	1	75	10	1	149	6	9	425.32	49	9
28	22	16	6	4	1	75	10	1	150	6	6	27.58	49	1
28	22	16	6	4	1	75	10	1	150	6	6	322.41	49	7
28	22	16	6	4	1	75	10	1	151	6	3	123.92	49	3
28	22	16	6	4	1	75	10	1	151	6	3	326.14	49	7
28	22	16	6	4	1	75	10	1	152	6	8	123.48	49	3
28	22	16	6	4	1	75	10	1	152	6	8	325.54	49	7
28	22	16	6	4	1	75	10	1	153	6	7	273.47	49	6
28	22	16	6	4	1	75	10	1	154	6	9	174.73	49	4
28	22	16	6	4	1	75	10	1	154	6	9	421.29	49	9
28	22	16	6	4	1	75	10	1	155	6	4	171.28	49	4
28	22	16	6	4	1	75	10	1	155	6	4	425.9	49	9
28	22	16	6	4	1	75	10	1	156	6	2	30.46	49	1
28	22	16	6	4	1	75	10	1	156	6	2	275.12	49	6
28	22	16	6	4	1	75	10	1	157	6	10	277.77	49	6
28	22	16	6	4	1	75	10	1	158	6	5	323.59	49	7
28	22	16	6	4	1	75	10	1	158	6	5	570.75	49	12
28	22	16	6	4	1	75	10	1	159	6	1	172.68	49	4
28	22	16	6	4	1	75	10	1	159	6	1	376.21	49	8
28	22	16	6	4	1	75	10	1	160	6	3	277.25	49	6
28	22	16	6	4	1	75	10	1	160	6	3	525.57	49	11
28	22	16	6	4	1	75	10	1	161	16	4	25.98	49	1
28	22	16	6	4	1	75	10	1	161	16	4	269.12	49	6
28	22	16	6	4	1	75	10	1	162	6	6	773.86	49	16
28	22	16	6	4	1	75	10	1	163	16	8	24.09	49	1
28	22	16	6	4	1	75	10	1	164	6	8	0	-1	16
28	22	16	6	4	1	75	10	1	165	6	6	78.84	49	2
28	22	16	6	4	1	75	10	1	165	6	6	325.36	49	7
28	22	16	6	4	1	75	10	1	166	16	7	325.77	49	7
28	22	16	6	4	1	75	10	1	167	6	4	723.26	49	15
28	22	16	6	4	1	75	10	1	168	6	5	22.17	49	1
28	22	16	6	4	1	75	10	1	168	6	5	776.32	49	16
28	22	16	6	4	1	75	10	1	169	6	10	22.49	49	1
28	22	16	6	4	1	75	10	1	170	6	9	181.51	49	4
28	22	16	6	4	1	75	10	1	170	6	9	421.53	49	9
28	22	16	6	4	1	75	10	1	171	6	7	73.53	49	2
28	22	16	6	4	1	75	10	1	171	6	7	321.28	49	7
28	22	16	6	4	1	75	10	1	172	16	5	125.58	49	3
28	22	16	6	4	1	75	10	1	172	16	5	375.42	49	8
28	22	16	6	4	1	75	10	1	173	6	2	130.89	49	3
28	22	16	6	4	1	75	10	1	173	6	2	375.03	49	8
28	22	16	6	4	1	75	10	1	173	6	2	670.93	49	14
28	22	16	6	4	1	75	10	1	174	16	2	27.56	49	1
28	22	16	6	4	1	75	10	1	174	16	2	271.11	49	6
28	22	16	6	4	1	75	10	1	175	6	1	73.05	49	2
28	22	16	6	4	1	75	10	1	175	6	1	273.13	49	6
28	22	16	6	4	1	75	10	1	175	6	1	473.64	49	10
28	22	16	6	4	1	75	10	1	175	6	1	769.34	49	16
28	22	16	6	4	1	75	10	1	176	6	8	23.97	49	1
28	22	16	6	4	1	75	10	1	176	6	8	276.12	49	6
28	22	16	6	4	1	75	10	1	177	6	3	22.78	49	1
28	22	16	6	4	1	75	10	1	177	6	3	226.09	49	5
28	22	16	6	4	1	75	10	1	178	6	5	71.16	49	2
28	22	16	6	4	1	75	10	1	178	6	5	274.1	49	6
28	22	16	6	4	1	75	10	1	179	6	4	173.99	49	4
28	22	16	6	4	1	75	10	1	179	6	4	422.74	49	9
28	22	16	6	4	1	75	10	1	180	6	2	70.59	49	2
28	22	16	6	4	1	75	10	1	180	6	2	275.34	49	6
28	22	16	6	4	1	75	10	1	181	6	10	124.44	49	3
28	22	16	6	4	1	75	10	1	181	6	10	773.15	49	16
28	22	16	6	4	1	75	10	1	182	6	9	23.64	49	1
28	22	16	6	4	1	75	10	1	183	6	6	74.78	49	2
28	22	16	6	4	1	75	10	1	184	16	9	24.8	49	1
28	22	16	6	4	1	75	10	1	185	16	1	0	-1	16
28	22	16	6	4	1	75	10	1	186	6	8	0	-1	16
28	22	16	6	4	1	75	10	1	187	6	7	123.71	49	3
28	22	16	6	4	1	75	10	1	188	6	3	125.32	49	3
28	22	16	6	4	1	75	10	1	189	6	1	219.17	49	5
28	22	16	6	4	1	75	10	1	190	6	6	134.09	49	3
28	22	16	6	4	1	75	10	1	190	6	6	773.49	49	16
28	22	16	6	4	1	75	10	1	191	16	3	23.61	49	1
28	22	16	6	4	1	75	10	1	192	6	4	681.02	49	14
28	22	16	6	4	1	75	10	1	193	6	1	21.65	49	1
28	22	16	6	4	1	75	10	1	194	6	2	176.15	49	4
28	22	16	6	4	1	75	10	1	195	16	6	22.75	49	1
28	22	16	6	4	1	75	10	1	196	6	5	621.42	49	13
28	22	16	6	4	1	75	10	1	197	6	9	22.49	49	1
28	22	16	6	4	1	75	10	1	198	16	8	22.28	49	1
28	22	16	6	4	1	75	10	1	199	16	10	0	-1	16
28	22	16	6	4	1	75	10	1	200	6	10	728.72	49	15
28	22	16	6	4	1	75	10	1	201	6	7	22.18	49	1
28	22	16	6	4	1	75	10	1	202	6	8	221.55	49	5
28	22	16	6	4	1	75	10	1	203	16	2	669	49	14
28	22	16	6	4	1	75	10	1	204	6	3	25.47	49	1
28	22	16	6	4	1	75	10	1	204	6	3	724.38	49	15
28	22	16	6	4	1	75	10	1	205	16	7	24.18	49	1
28	22	16	6	4	1	75	10	1	206	6	7	527.87	49	11
28	22	16	6	4	1	75	10	1	206	6	7	772.46	49	16
28	22	16	6	4	1	75	10	1	207	6	1	22.24	49	1
28	22	16	6	4	1	75	10	1	208	6	5	170.91	49	4
28	22	16	6	4	1	75	10	1	208	6	5	373.2	49	8
28	22	16	6	4	1	75	10	1	209	16	1	122.87	49	3
28	22	16	6	4	1	75	10	1	210	6	10	673.19	49	14
28	22	16	6	4	1	75	10	1	211	6	4	22.78	49	1
28	22	16	6	4	1	75	10	1	212	16	4	27.22	49	1
28	22	16	6	4	1	75	10	1	212	16	4	274.77	49	6
28	22	16	6	4	1	75	10	1	213	6	2	0	-1	16
28	22	16	6	4	1	75	10	1	214	6	9	76.1	49	2
28	22	16	6	4	1	75	10	1	214	6	9	321.38	49	7
28	22	16	6	4	1	75	10	1	215	16	5	121.7	49	3
28	22	16	6	4	1	75	10	1	215	16	5	323.38	49	7
28	22	16	6	4	1	75	10	1	216	6	3	120.32	49	3
28	22	16	6	4	1	75	10	1	216	6	3	323.56	49	7
28	22	16	6	4	1	75	10	1	216	6	3	730.39	49	15
28	22	16	6	4	1	75	10	1	217	6	6	24.87	49	1
28	22	16	6	4	1	75	10	1	218	6	8	23.23	49	1
28	22	16	6	4	1	75	10	1	219	6	6	224.42	49	5
28	22	16	6	4	1	75	10	1	220	6	4	371.9	49	8
28	22	16	6	4	1	75	10	1	220	6	4	576.37	49	12
28	22	16	6	4	1	75	10	1	221	16	9	123.39	49	3
28	22	16	6	4	1	75	10	1	221	16	9	373.23	49	8
28	22	16	6	4	1	75	10	1	222	6	9	726.53	49	15
28	22	16	6	4	1	75	10	1	223	6	10	23.85	49	1
28	22	16	6	4	1	75	10	1	224	6	1	121.89	49	3
28	22	16	6	4	1	75	10	1	224	6	1	371.12	49	8
28	22	16	6	4	1	75	10	1	225	16	3	225.79	49	5
28	22	16	6	4	1	75	10	1	225	16	3	475.28	49	10
28	22	16	6	4	1	75	10	1	226	6	2	671	49	14
28	22	16	6	4	1	75	10	1	227	6	7	23.59	49	1
28	22	16	6	4	1	75	10	1	227	6	7	770.67	49	16
28	22	16	6	4	1	75	10	1	228	6	5	25.01	49	1
28	22	16	6	4	1	75	10	1	228	6	5	276.5	49	6
28	22	16	6	4	1	75	10	1	229	6	8	525.42	49	11
28	22	16	6	4	1	75	10	1	230	6	3	124.01	49	3
28	22	16	6	4	1	75	10	1	231	6	6	71.19	49	2
28	22	16	6	4	1	75	10	1	231	6	6	272.57	49	6
28	22	16	6	4	1	75	10	1	232	16	6	27.99	49	1
28	22	16	6	4	1	75	10	1	233	16	7	0	-1	16
28	22	16	6	4	1	75	10	1	234	6	5	579.27	49	12
28	22	16	6	4	1	75	10	1	235	6	7	727.76	49	15
28	22	16	6	4	1	75	10	1	236	16	8	21.79	49	1
28	22	16	6	4	1	75	10	1	237	6	1	0	-1	16
28	22	16	6	4	1	75	10	1	238	6	2	22.83	49	1
28	22	16	6	4	1	75	10	1	238	6	2	776	49	16
28	22	16	6	4	1	75	10	1	239	6	8	21.39	49	1
28	22	16	6	4	1	75	10	1	240	6	4	225.7	49	5
28	22	16	6	4	1	75	10	1	240	6	4	770.94	49	16
28	22	16	6	4	1	75	10	1	241	6	9	23.23	49	1
28	22	16	6	4	1	75	10	1	241	6	9	781.18	49	16
28	22	16	6	4	1	75	10	1	242	6	10	24.86	49	1
28	22	16	6	4	1	75	10	1	242	6	10	225.61	49	5
28	22	16	6	4	1	75	10	1	242	6	10	772.37	49	16
28	22	16	6	4	1	75	10	1	243	6	3	25.19	49	1
28	22	16	6	4	1	75	10	1	243	6	3	719.48	49	15
28	22	16	6	4	1	75	10	1	244	16	5	24.13	49	1
28	22	16	6	4	1	75	10	1	245	6	7	0	-1	16
28	22	16	6	4	1	75	10	1	246	6	10	23.5	49	1
28	22	16	6	4	1	75	10	1	246	6	10	273.19	49	6
28	22	16	6	4	1	75	10	1	247	6	4	126.25	49	3
28	22	16	6	4	1	75	10	1	247	6	4	770.54	49	16
28	22	16	6	4	1	75	10	1	248	6	2	26.14	49	1
28	22	16	6	4	1	75	10	1	249	6	5	22.37	49	1
28	22	16	6	4	1	75	10	1	249	6	5	222.67	49	5
28	22	16	6	4	1	75	10	1	249	6	5	773.04	49	16
28	22	16	6	4	1	75	10	1	250	16	2	22.4	49	1
28	22	16	6	4	1	75	10	1	251	16	1	22.76	49	1
28	22	16	6	4	1	75	10	1	251	16	1	273.75	49	6
28	22	16	6	4	1	75	10	1	252	6	1	0	-1	16
28	22	16	6	4	1	75	10	1	253	16	4	221.17	49	5
28	22	16	6	4	1	75	10	1	254	6	9	0	-1	16
28	22	16	6	4	1	75	10	1	255	6	6	26.88	49	1
28	22	16	6	4	1	75	10	1	256	6	3	76.13	49	2
28	22	16	6	4	1	75	10	1	257	6	8	29	49	1
28	22	16	6	4	1	75	10	1	257	6	8	273.12	49	6
28	22	16	6	4	1	75	10	1	258	6	6	272.21	49	6
28	22	16	6	4	1	75	10	1	259	6	2	71.1	49	2
28	22	16	6	4	1	75	10	1	260	6	7	171.68	49	4
28	22	16	6	4	1	75	10	1	261	16	9	121.28	49	3
28	22	16	6	4	1	75	10	1	262	6	8	0	-1	16
28	22	16	6	4	1	75	10	1	263	6	5	24.13	49	1
28	22	16	6	4	1	75	10	1	264	6	9	126.95	49	3
28	22	16	6	4	1	75	10	1	265	16	10	221.79	49	5
28	22	16	6	4	1	75	10	1	265	16	10	422.83	49	9
28	22	16	6	4	1	75	10	1	266	6	1	775.97	49	16
28	22	16	6	4	1	75	10	1	267	6	4	23.89	49	1
28	22	16	6	4	1	75	10	1	268	6	10	74.2	49	2
28	22	16	6	4	1	75	10	1	268	6	10	276.51	49	6
28	22	16	6	4	1	75	10	1	269	16	3	127.73	49	3
28	22	16	6	4	1	75	10	1	269	16	3	327.87	49	7
28	22	16	6	4	1	75	10	1	270	6	3	672.34	49	14
28	22	16	6	4	1	75	10	1	271	16	7	23.07	49	1
28	22	16	6	4	1	75	10	1	272	6	6	773	49	16
28	22	16	6	4	1	75	10	1	273	16	1	23.86	49	1
28	22	16	6	4	1	75	10	1	274	6	8	0	-1	16
28	22	16	6	4	1	75	10	1	275	6	4	171.05	49	4
28	22	16	6	4	1	75	10	1	275	6	4	373.49	49	8
28	22	16	6	4	1	75	10	1	276	16	10	272.76	49	6
28	22	16	6	4	1	75	10	1	276	16	10	475.68	49	10
28	22	16	6	4	1	75	10	1	277	6	10	771.14	49	16
28	22	16	6	4	1	75	10	1	278	6	2	21.95	49	1
28	22	16	6	4	1	75	10	1	278	6	2	273.04	49	6
28	22	16	6	4	1	75	10	1	279	6	9	121.01	49	3
28	22	16	6	4	1	75	10	1	279	6	9	321.08	49	7
28	22	16	6	4	1	75	10	1	280	6	1	175.42	49	4
28	22	16	6	4	1	75	10	1	280	6	1	771.49	49	16
28	22	16	6	4	1	75	10	1	281	6	5	27.05	49	1
28	22	16	6	4	1	75	10	1	281	6	5	270.9	49	6
28	22	16	6	4	1	75	10	1	282	6	7	0	-1	16
28	22	16	6	4	1	75	10	1	283	6	3	120.35	49	3
28	22	16	6	4	1	75	10	1	283	6	3	321.68	49	7
28	22	16	6	4	1	75	10	1	284	6	2	228.89	49	5
28	22	16	6	4	1	75	10	1	284	6	2	468.85	49	10
28	22	16	6	4	1	75	10	1	285	6	10	176.1	49	4
28	22	16	6	4	1	75	10	1	285	6	10	376.86	49	8
28	22	16	6	4	1	75	10	1	286	6	9	222.07	49	5
28	22	16	6	4	1	75	10	1	287	6	8	376.09	49	8
28	22	16	6	4	1	75	10	1	288	16	9	70.95	49	2
28	22	16	6	4	1	75	10	1	288	16	9	272.76	49	6
28	22	16	6	4	1	75	10	1	289	6	5	776.76	49	16
28	22	16	6	4	1	75	10	1	290	6	1	24.33	49	1
28	22	16	6	4	1	75	10	1	291	6	7	229.73	49	5
28	22	16	6	4	1	75	10	1	291	6	7	473.79	49	10
28	22	16	6	4	1	75	10	1	292	16	2	0	-1	16
28	22	16	6	4	1	75	10	1	293	6	3	0	-1	16
28	22	16	6	4	1	75	10	1	294	6	6	321.01	49	7
28	22	16	6	4	1	75	10	1	295	6	4	69.05	49	2
28	22	16	6	4	1	75	10	1	295	6	4	275.42	49	6
28	22	16	6	4	1	75	10	1	296	16	5	121.77	49	3
28	22	16	6	4	1	75	10	1	297	16	4	780.89	49	16
28	22	16	6	4	1	75	10	1	298	6	2	23.81	49	1
28	22	16	6	4	1	75	10	1	298	6	2	226.6	49	5
28	22	16	6	4	1	75	10	1	298	6	2	775.68	49	16
28	22	16	6	4	1	75	10	1	299	6	9	22.23	49	1
28	22	16	6	4	1	75	10	1	300	6	10	74.51	49	2
28	22	16	6	4	1	75	10	1	301	16	6	329.31	49	7
28	22	16	6	4	1	75	10	1	302	6	1	720.58	49	15
28	22	16	6	4	1	75	10	1	303	6	8	24.21	49	1
28	22	16	6	4	1	75	10	1	304	16	3	275.58	49	6
28	22	16	6	4	1	75	10	1	305	6	6	771.18	49	16
28	22	16	6	4	1	75	10	1	306	16	8	23.41	49	1
28	22	16	6	4	1	75	10	1	307	6	7	0	-1	16
28	22	16	6	4	1	75	10	1	308	6	3	270.82	49	6
28	22	16	6	4	1	75	10	1	308	6	3	771.18	49	16
28	22	16	6	4	1	75	10	1	309	16	7	23.21	49	1
28	22	16	6	4	1	75	10	1	309	16	7	225.08	49	5
28	22	16	6	4	1	75	10	1	310	16	1	0	-1	16
28	22	16	6	4	1	75	10	1	311	6	5	525.85	49	11
28	22	16	6	4	1	75	10	1	312	6	4	727.09	49	15
28	22	16	6	4	1	75	10	1	313	6	7	25.33	49	1
28	22	16	6	4	1	75	10	1	314	16	9	121.42	49	3
28	22	16	6	4	1	75	10	1	314	16	9	323.13	49	7
28	22	16	6	4	1	75	10	1	315	6	9	672.93	49	14
28	22	16	6	4	1	75	10	1	316	16	4	26.56	49	1
28	22	16	6	4	1	75	10	1	317	6	2	0	-1	16
28	22	16	6	4	1	75	10	1	318	6	4	173.09	49	4
28	22	16	6	4	1	75	10	1	318	6	4	424.92	49	9
28	22	16	6	4	1	75	10	1	319	16	5	121.37	49	3
28	22	16	6	4	1	75	10	1	319	16	5	326.03	49	7
28	22	16	6	4	1	75	10	1	320	6	5	424.64	49	9
28	22	16	6	4	1	75	10	1	320	6	5	670.89	49	14
28	22	16	6	4	1	75	10	1	321	6	1	0	-1	16
28	22	16	6	4	1	75	10	1	322	6	10	175.42	49	4
28	22	16	6	4	1	75	10	1	322	6	10	425.41	49	9
28	22	16	6	4	1	75	10	1	323	16	10	271.21	49	6
28	22	16	6	4	1	75	10	1	323	16	10	472.92	49	10
28	22	16	6	4	1	75	10	1	324	16	2	0	-1	16
28	22	16	6	4	1	75	10	1	325	6	6	0	-1	16
28	22	16	6	4	1	75	10	1	326	6	3	126.84	49	3
28	22	16	6	4	1	75	10	1	327	6	8	0	-1	16
28	22	16	6	4	1	75	10	1	328	6	5	321.18	49	7
28	22	16	6	4	1	75	10	1	328	6	5	523.75	49	11
28	22	16	6	4	1	75	10	1	329	6	10	24.31	49	1
28	22	16	6	4	1	75	10	1	329	6	10	273.52	49	6
28	22	16	6	4	1	75	10	1	330	6	4	121.3	49	3
28	22	16	6	4	1	75	10	1	330	6	4	325.91	49	7
28	22	16	6	4	1	75	10	1	331	6	9	125.52	49	3
28	22	16	6	4	1	75	10	1	331	6	9	373.09	49	8
28	22	16	6	4	1	75	10	1	332	6	2	121.91	49	3
28	22	16	6	4	1	75	10	1	332	6	2	323.18	49	7
28	22	16	6	4	1	75	10	1	333	6	8	127.39	49	3
28	22	16	6	4	1	75	10	1	333	6	8	375.19	49	8
28	22	16	6	4	1	75	10	1	334	6	7	321.19	49	7
28	22	16	6	4	1	75	10	1	334	6	7	523.03	49	11
28	22	16	6	4	1	75	10	1	335	6	3	125.5	49	3
28	22	16	6	4	1	75	10	1	335	6	3	776.17	49	16
28	22	16	6	4	1	75	10	1	336	6	6	21.82	49	1
28	22	16	6	4	1	75	10	1	337	6	1	171.78	49	4
28	22	16	6	4	1	75	10	1	338	6	7	323.51	49	7
28	22	16	6	4	1	75	10	1	339	6	9	123.74	49	3
28	22	16	6	4	1	75	10	1	340	6	4	28.87	49	1
28	22	16	6	4	1	75	10	1	340	6	4	276.53	49	6
28	22	16	6	4	1	75	10	1	341	6	10	23.47	49	1
28	22	16	6	4	1	75	10	1	341	6	10	225.79	49	5
28	22	16	6	4	1	75	10	1	342	6	5	76.3	49	2
28	22	16	6	4	1	75	10	1	342	6	5	321.36	49	7
28	22	16	6	4	1	75	10	1	343	16	6	72.11	49	2
28	22	16	6	4	1	75	10	1	343	16	6	320.95	49	7
28	22	16	6	4	1	75	10	1	344	16	3	0	-1	16
28	22	16	6	4	1	75	10	1	345	16	8	0	-1	16
28	22	16	6	4	1	75	10	1	346	6	2	773.18	49	16
28	22	16	6	4	1	75	10	1	347	16	2	22.09	49	1
28	22	16	6	4	1	75	10	1	348	6	1	325.26	49	7
28	22	16	6	4	1	75	10	1	349	6	3	0	-1	16
28	22	16	6	4	1	75	10	1	350	6	6	26.82	49	1
28	22	16	6	4	1	75	10	1	350	6	6	275.38	49	6
28	22	16	6	4	1	75	10	1	351	6	8	172.49	49	4
28	22	16	6	4	1	75	10	1	351	6	8	373.46	49	8
28	22	16	6	4	1	75	10	1	352	6	2	282.33	49	6
28	22	16	6	4	1	75	10	1	352	6	2	483.35	49	10
28	22	16	6	4	1	75	10	1	353	6	9	174.42	49	4
28	22	16	6	4	1	75	10	1	354	6	10	74.15	49	2
28	22	16	6	4	1	75	10	1	355	6	7	271.42	49	6
28	22	16	6	4	1	75	10	1	356	16	9	221.91	49	5
28	22	16	6	4	1	75	10	1	357	6	1	0	-1	16
28	22	16	6	4	1	75	10	1	358	6	6	73.17	49	2
28	22	16	6	4	1	75	10	1	359	6	5	121.07	49	3
28	22	16	6	4	1	75	10	1	360	6	8	121.04	49	3
28	22	16	6	4	1	75	10	1	360	6	8	322.77	49	7
28	22	16	6	4	1	75	10	1	361	6	3	272.95	49	6
28	22	16	6	4	1	75	10	1	362	6	4	227.5	49	5
28	22	16	6	4	1	75	10	1	362	6	4	482.3	49	10
28	22	16	6	4	1	75	10	1	363	6	5	71.5	49	2
28	22	16	6	4	1	75	10	1	363	6	5	322.97	49	7
28	22	16	6	4	1	75	10	1	364	6	2	172.46	49	4
28	22	16	6	4	1	75	10	1	364	6	2	375.55	49	8
28	22	16	6	4	1	75	10	1	365	16	10	126.23	49	3
28	22	16	6	4	1	75	10	1	365	16	10	374.15	49	8
28	22	16	6	4	1	75	10	1	366	6	10	0	-1	16
28	22	16	6	4	1	75	10	1	367	6	9	173.05	49	4
28	22	16	6	4	1	75	10	1	367	6	9	373.24	49	8
28	22	16	6	4	1	75	10	1	368	6	4	521.23	49	11
28	22	16	6	4	1	75	10	1	368	6	4	779.88	49	16
28	22	16	6	4	1	75	10	1	369	6	3	22.13	49	1
28	22	16	6	4	1	75	10	1	370	6	8	273.86	49	6
28	22	16	6	4	1	75	10	1	371	6	7	320.99	49	7
28	22	16	6	4	1	75	10	1	371	6	7	523.21	49	11
28	22	16	6	4	1	75	10	1	372	6	6	479.54	49	10
28	22	16	6	4	1	75	10	1	372	6	6	722.72	49	15
28	22	16	6	4	1	75	10	1	373	6	1	22.21	49	1
28	22	16	6	4	1	75	10	1	373	6	1	322.86	49	7
28	22	16	6	4	1	75	10	1	373	6	1	572.88	49	12
28	22	16	6	4	1	75	10	1	374	6	2	0	-1	16
28	22	16	6	4	1	75	10	1	375	6	10	70.96	49	2
28	22	16	6	4	1	75	10	1	375	6	10	271.2	49	6
28	22	16	6	4	1	75	10	1	376	6	9	71.02	49	2
28	22	16	6	4	1	75	10	1	376	6	9	271.19	49	6
28	22	16	6	4	1	75	10	1	377	6	7	222.01	49	5
28	22	16	6	4	1	75	10	1	378	16	7	223.63	49	5
28	22	16	6	4	1	75	10	1	378	16	7	423.66	49	9
28	22	16	6	4	1	75	10	1	379	16	3	0	-1	16
28	22	16	6	4	1	75	10	1	380	16	5	0	-1	16
28	22	16	6	4	1	75	10	1	381	6	5	225.25	49	5
28	22	16	6	4	1	75	10	1	381	6	5	476.17	49	10
28	22	16	6	4	1	75	10	1	382	16	6	0	-1	16
28	22	16	6	4	1	75	10	1	383	6	8	774.27	49	16
28	22	16	6	4	1	75	10	1	384	6	1	23.7	49	1
28	22	16	6	4	1	75	10	1	385	6	6	172.53	49	4
28	22	16	6	4	1	75	10	1	386	6	3	328.65	49	7
28	22	16	6	4	1	75	10	1	387	16	8	78.17	49	2
28	22	16	6	4	1	75	10	1	387	16	8	323.03	49	7
28	22	16	6	4	1	75	10	1	388	6	4	0	-1	16
28	22	16	6	4	1	75	10	1	389	6	7	23.1	49	1
28	22	16	6	4	1	75	10	1	390	6	1	271.79	49	6
28	22	16	6	4	1	75	10	1	390	6	1	472.8	49	10
28	22	16	6	4	1	75	10	1	391	6	2	776.76	49	16
28	22	16	6	4	1	75	10	1	392	6	5	21.69	49	1
28	22	16	6	4	1	75	10	1	392	6	5	224.91	49	5
28	22	16	6	4	1	75	10	1	392	6	5	721.53	49	15
28	22	16	6	4	1	75	10	1	393	16	1	26.2	49	1
28	22	16	6	4	1	75	10	1	394	6	10	777.42	49	16
28	22	16	6	4	1	75	10	1	395	16	4	76.56	49	2
28	22	16	6	4	1	75	10	1	396	6	4	0	-1	16
28	22	16	6	4	1	75	10	1	397	6	9	72.28	49	2
28	22	16	6	4	1	75	10	1	397	6	9	274.14	49	6
28	22	16	6	4	1	75	10	1	398	6	6	279.87	49	6
28	22	16	6	4	1	75	10	1	398	6	6	522.03	49	11
28	22	16	6	4	1	75	10	1	399	6	3	272.29	49	6
28	22	16	6	4	1	75	10	1	400	6	8	222.91	49	5
28	22	16	6	4	1	75	10	1	400	6	8	473.05	49	10
28	22	16	6	4	1	75	10	1	401	16	5	271.5	49	6
28	22	16	6	4	1	75	10	1	401	16	5	473.32	49	10
28	22	16	6	4	1	75	10	1	402	6	6	722.93	49	15
28	22	16	6	4	1	75	10	1	403	16	9	26.26	49	1
28	22	16	6	4	1	75	10	1	404	6	10	773.51	49	16
28	22	16	6	4	1	75	10	1	405	6	9	71.33	49	2
28	22	16	6	4	1	75	10	1	406	16	2	171.19	49	4
28	22	16	6	4	1	75	10	1	406	16	2	372.13	49	8
28	22	16	6	4	1	75	10	1	407	16	10	325.96	49	7
28	22	16	6	4	1	75	10	1	407	16	10	573.46	49	12
28	22	16	6	4	1	75	10	1	408	6	5	0	-1	16
28	22	16	6	4	1	75	10	1	409	16	4	121.91	49	3
28	22	16	6	4	1	75	10	1	410	16	6	0	-1	16
28	22	16	6	4	1	75	10	1	411	6	7	0	-1	16
28	22	16	6	4	1	75	10	1	412	16	7	71.4	49	2
28	22	16	6	4	1	75	10	1	413	6	4	723.39	49	15
28	22	16	6	4	1	75	10	1	414	16	8	22.08	49	1
28	22	16	6	4	1	75	10	1	415	6	2	0	-1	16
28	22	16	6	4	1	75	10	1	416	6	1	125.44	49	3
28	22	16	6	4	1	75	10	1	416	6	1	373.87	49	8
28	22	16	6	4	1	75	10	1	417	6	8	280.79	49	6
28	22	16	6	4	1	75	10	1	417	6	8	521.09	49	11
28	22	16	6	4	1	75	10	1	418	6	3	520.59	49	11
28	22	16	6	4	1	75	10	1	418	6	3	721.52	49	15
28	22	16	6	4	1	75	10	1	419	6	2	325.15	49	7
28	22	16	6	4	1	75	10	1	419	6	2	571.2	49	12
28	22	16	6	4	1	75	10	1	420	6	10	369.88	49	8
28	22	16	6	4	1	75	10	1	420	6	10	569.99	49	12
28	22	16	6	4	1	75	10	1	421	16	3	74.36	49	2
28	22	16	6	4	1	75	10	1	421	16	3	326.64	49	7
28	22	16	6	4	1	75	10	1	422	6	9	0	-1	16
28	22	16	6	4	1	75	10	1	423	16	1	22.63	49	1
28	22	16	6	4	1	75	10	1	423	16	1	223.13	49	5
28	22	16	6	4	1	75	10	1	424	6	7	0	-1	16
28	22	16	6	4	1	75	10	1	425	6	6	221.76	49	5
28	22	16	6	4	1	75	10	1	425	6	6	423.43	49	9
28	22	16	6	4	1	75	10	1	426	16	6	275.75	49	6
28	22	16	6	4	1	75	10	1	426	16	6	523.94	49	11
28	22	16	6	4	1	75	10	1	427	6	5	725.7	49	15
28	22	16	6	4	1	75	10	1	428	16	7	21.95	49	1
28	22	16	6	4	1	75	10	1	429	6	8	0	-1	16
28	22	16	6	4	1	75	10	1	430	6	1	24	49	1
28	22	16	6	4	1	75	10	1	431	16	1	120.65	49	3
28	22	16	6	4	1	75	10	1	431	16	1	320.9	49	7
28	22	16	6	4	1	75	10	1	432	6	3	0	-1	16
28	22	16	6	4	1	75	10	1	433	6	4	83.37	49	2
28	22	16	6	4	1	75	10	1	434	6	6	169.7	49	4
28	22	16	6	4	1	75	10	1	434	6	6	375.07	49	8
28	22	16	6	4	1	75	10	1	435	6	1	127.3	49	3
28	22	16	6	4	1	75	10	1	436	6	4	221.01	49	5
28	22	16	6	4	1	75	10	1	437	6	10	23.56	49	1
28	22	16	6	4	1	75	10	1	437	6	10	273.01	49	6
28	22	16	6	4	1	75	10	1	437	6	10	771.89	49	16
28	22	16	6	4	1	75	10	1	438	6	5	23.07	49	1
28	22	16	6	4	1	75	10	1	439	16	10	122.04	49	3
28	22	16	6	4	1	75	10	1	440	6	7	121.79	49	3
28	22	16	6	4	1	75	10	1	440	6	7	728.34	49	15
28	22	16	6	4	1	75	10	1	441	6	2	21.81	49	1
28	22	16	6	4	1	75	10	1	442	6	9	127.75	49	3
28	22	16	6	4	1	75	10	1	442	6	9	421.9	49	9
28	22	16	6	4	1	75	10	1	443	6	8	225.37	49	5
28	22	16	6	4	1	75	10	1	444	6	3	179.38	49	4
28	22	16	6	4	1	75	10	1	444	6	3	421.89	49	9
28	22	16	6	4	1	75	10	1	445	6	5	73.52	49	2
28	22	16	6	4	1	75	10	1	445	6	5	275.09	49	6
28	22	16	6	4	1	75	10	1	446	6	4	76.44	49	2
28	22	16	6	4	1	75	10	1	446	6	4	326.33	49	7
28	22	16	6	4	1	75	10	1	446	6	4	779.65	49	16
28	22	16	6	4	1	75	10	1	447	6	9	70.44	49	2
28	22	16	6	4	1	75	10	1	447	6	9	277.43	49	6
28	22	16	6	4	1	75	10	1	447	6	9	771.62	49	16
28	22	16	6	4	1	75	10	1	448	6	2	26.66	49	1
28	22	16	6	4	1	75	10	1	448	6	2	272.98	49	6
28	22	16	6	4	1	75	10	1	449	6	10	176.05	49	4
28	22	16	6	4	1	75	10	1	450	6	8	22.8	49	1
28	22	16	6	4	1	75	10	1	450	6	8	225.44	49	5
