SubjectNum	Age	Gender	PressedTask	Block Type	Block Repeat Num	Response Rate	Onset	Block	Trial	ImgType	ImgNum	RT	PressedC	FrameC
10	25	9	6	3	1	75	10	1	1	6	5	829.85	49	16
10	25	9	6	3	1	75	10	1	2	6	10	15.4	49	1
10	25	9	6	3	1	75	10	1	2	6	10	711.39	49	15
10	25	9	6	3	1	75	10	1	3	6	4	11.19	49	1
10	25	9	6	3	1	75	10	1	3	6	4	683.92	49	14
10	25	9	6	3	1	75	10	1	4	6	9	8.12	49	1
10	25	9	6	3	1	75	10	1	4	6	9	682.37	49	14
10	25	9	6	3	1	75	10	1	5	16	7	7.77	49	1
10	25	9	6	3	1	75	10	1	6	6	2	678.94	49	14
10	25	9	6	3	1	75	10	1	7	6	3	11.05	49	1
10	25	9	6	3	1	75	10	1	7	6	3	707.67	49	15
10	25	9	6	3	1	75	10	1	8	16	9	8.15	49	1
10	25	9	6	3	1	75	10	1	9	6	8	757.87	49	16
10	25	9	6	3	1	75	10	1	10	16	2	8.92	49	1
10	25	9	6	3	1	75	10	1	11	6	7	0	-1	16
10	25	9	6	3	1	75	10	1	12	6	6	42.26	49	1
10	25	9	6	3	1	75	10	1	12	6	6	259.84	49	6
10	25	9	6	3	1	75	10	1	13	6	1	284.52	49	6
10	25	9	6	3	1	75	10	1	13	6	1	512.16	49	11
10	25	9	6	3	1	75	10	1	14	16	5	411.39	49	9
10	25	9	6	3	1	75	10	1	14	16	5	611.67	49	13
10	25	9	6	3	1	75	10	1	15	6	5	358.64	49	8
10	25	9	6	3	1	75	10	1	15	6	5	560.33	49	12
10	25	9	6	3	1	75	10	1	16	6	2	408.67	49	9
10	25	9	6	3	1	75	10	1	17	6	4	672.78	49	14
10	25	9	6	3	1	75	10	1	18	6	9	8.13	49	1
10	25	9	6	3	1	75	10	1	19	6	10	11.58	49	1
10	25	9	6	3	1	75	10	1	20	16	1	208.57	49	5
10	25	9	6	3	1	75	10	1	21	6	3	512.91	49	11
10	25	9	6	3	1	75	10	1	22	16	10	0	-1	16
10	25	9	6	3	1	75	10	1	23	6	7	712.38	49	15
10	25	9	6	3	1	75	10	1	24	16	4	10.44	49	1
10	25	9	6	3	1	75	10	1	24	16	4	731.09	49	15
10	25	9	6	3	1	75	10	1	25	6	8	10.24	49	1
10	25	9	6	3	1	75	10	1	25	6	8	718.67	49	15
10	25	9	6	3	1	75	10	1	26	16	3	9.5	49	1
10	25	9	6	3	1	75	10	1	27	6	6	0	-1	16
10	25	9	6	3	1	75	10	1	28	6	1	10.46	49	1
10	25	9	6	3	1	75	10	1	29	6	6	184.05	49	4
10	25	9	6	3	1	75	10	1	30	6	1	125.98	49	3
10	25	9	6	3	1	75	10	1	31	16	6	309.35	49	7
10	25	9	6	3	1	75	10	1	31	16	6	509.43	49	11
10	25	9	6	3	1	75	10	1	32	6	9	429.34	49	9
10	25	9	6	3	1	75	10	1	33	6	8	562.07	49	12
10	25	9	6	3	1	75	10	1	34	6	10	0	-1	16
10	25	9	6	3	1	75	10	1	35	16	8	29.55	49	1
10	25	9	6	3	1	75	10	1	36	6	7	711.51	49	15
10	25	9	6	3	1	75	10	1	37	6	4	9.95	49	1
10	25	9	6	3	1	75	10	1	38	6	2	24.66	49	1
10	25	9	6	3	1	75	10	1	39	6	5	512.24	49	11
10	25	9	6	3	1	75	10	1	40	16	7	0	-1	16
10	25	9	6	3	1	75	10	1	41	16	4	0	-1	16
10	25	9	6	3	1	75	10	1	42	6	3	594.23	49	12
10	25	9	6	3	1	75	10	1	43	6	7	7.65	49	1
10	25	9	6	3	1	75	10	1	44	6	5	209.2	49	5
10	25	9	6	3	1	75	10	1	44	6	5	410.08	49	9
10	25	9	6	3	1	75	10	1	45	6	2	279.83	49	6
10	25	9	6	3	1	75	10	1	46	6	1	307.5	49	7
10	25	9	6	3	1	75	10	1	47	6	9	259.42	49	6
10	25	9	6	3	1	75	10	1	48	6	4	258.52	49	6
10	25	9	6	3	1	75	10	1	49	16	5	172.17	49	4
10	25	9	6	3	1	75	10	1	49	16	5	407.56	49	9
10	25	9	6	3	1	75	10	1	50	16	1	373.09	49	8
10	25	9	6	3	1	75	10	1	51	6	10	0	-1	16
10	25	9	6	3	1	75	10	1	52	6	6	71.95	49	2
10	25	9	6	3	1	75	10	1	53	6	3	259.41	49	6
10	25	9	6	3	1	75	10	1	53	6	3	460.81	49	10
10	25	9	6	3	1	75	10	1	54	6	8	460.01	49	10
10	25	9	6	3	1	75	10	1	54	6	8	661.43	49	14
10	25	9	6	3	1	75	10	1	55	16	2	709.94	49	15
10	25	9	6	3	1	75	10	1	56	6	2	8.47	49	1
10	25	9	6	3	1	75	10	1	57	6	10	195.42	49	4
10	25	9	6	3	1	75	10	1	58	6	9	630.63	49	13
10	25	9	6	3	1	75	10	1	59	16	10	10.41	49	1
10	25	9	6	3	1	75	10	1	60	6	1	728.73	49	15
10	25	9	6	3	1	75	10	1	61	6	8	8.77	49	1
10	25	9	6	3	1	75	10	1	62	6	3	130.79	49	3
10	25	9	6	3	1	75	10	1	62	6	3	358.8	49	8
10	25	9	6	3	1	75	10	1	63	6	6	310.21	49	7
10	25	9	6	3	1	75	10	1	63	6	6	511.44	49	11
10	25	9	6	3	1	75	10	1	64	6	5	415.16	49	9
10	25	9	6	3	1	75	10	1	65	6	7	410.74	49	9
10	25	9	6	3	1	75	10	1	65	6	7	610.79	49	13
10	25	9	6	3	1	75	10	1	66	6	4	609.73	49	13
10	25	9	6	3	1	75	10	1	67	6	7	8.32	49	1
10	25	9	6	3	1	75	10	1	68	6	4	77.21	49	2
10	25	9	6	3	1	75	10	1	68	6	4	308.35	49	7
10	25	9	6	3	1	75	10	1	69	6	10	284.61	49	6
10	25	9	6	3	1	75	10	1	69	6	10	510.27	49	11
10	25	9	6	3	1	75	10	1	70	6	2	579.27	49	12
10	25	9	6	3	1	75	10	1	71	6	1	7.89	49	1
10	25	9	6	3	1	75	10	1	71	6	1	774.3	49	16
10	25	9	6	3	1	75	10	1	72	6	9	7.95	49	1
10	25	9	6	3	1	75	10	1	73	6	5	230.19	49	5
10	25	9	6	3	1	75	10	1	73	6	5	457.2	49	10
10	25	9	6	3	1	75	10	1	74	6	6	486.29	49	10
10	25	9	6	3	1	75	10	1	74	6	6	712.11	49	15
10	25	9	6	3	1	75	10	1	75	6	3	677.94	49	14
10	25	9	6	3	1	75	10	1	76	6	8	10.29	49	1
10	25	9	6	3	1	75	10	1	77	6	5	129.79	49	3
10	25	9	6	3	1	75	10	1	78	16	9	313.12	49	7
10	25	9	6	3	1	75	10	1	79	16	6	469.55	49	10
10	25	9	6	3	1	75	10	1	79	16	6	711.73	49	15
10	25	9	6	3	1	75	10	1	80	16	3	661.76	49	14
10	25	9	6	3	1	75	10	1	81	16	8	8.42	49	1
10	25	9	6	3	1	75	10	1	82	6	4	627.52	49	13
10	25	9	6	3	1	75	10	1	83	16	7	27.96	49	1
10	25	9	6	3	1	75	10	1	84	6	10	624.39	49	13
10	25	9	6	3	1	75	10	1	85	6	2	7.62	49	1
10	25	9	6	3	1	75	10	1	86	6	9	175.47	49	4
10	25	9	6	3	1	75	10	1	87	6	7	460.24	49	10
10	25	9	6	3	1	75	10	1	87	6	7	710.26	49	15
10	25	9	6	3	1	75	10	1	88	6	8	728.99	49	15
10	25	9	6	3	1	75	10	1	89	6	6	10.44	49	1
10	25	9	6	3	1	75	10	1	90	6	3	424.28	49	9
10	25	9	6	3	1	75	10	1	90	6	3	660.82	49	14
10	25	9	6	3	1	75	10	1	91	6	1	710.85	49	15
10	25	9	6	3	1	75	10	1	92	6	7	9.64	49	1
10	25	9	6	3	1	75	10	1	93	16	9	159.06	49	4
10	25	9	6	3	1	75	10	1	93	16	9	360.53	49	8
10	25	9	6	3	1	75	10	1	94	6	5	486.51	49	10
10	25	9	6	3	1	75	10	1	94	6	5	711.26	49	15
10	25	9	6	3	1	75	10	1	95	6	2	0	-1	16
10	25	9	6	3	1	75	10	1	96	6	1	217.5	49	5
10	25	9	6	3	1	75	10	1	97	6	9	291.38	49	6
10	25	9	6	3	1	75	10	1	97	6	9	507.44	49	11
10	25	9	6	3	1	75	10	1	98	16	2	0	-1	16
10	25	9	6	3	1	75	10	1	99	6	4	207.59	49	5
10	25	9	6	3	1	75	10	1	99	6	4	407.59	49	9
10	25	9	6	3	1	75	10	1	100	16	4	0	-1	16
10	25	9	6	3	1	75	10	1	101	6	10	0	-1	16
10	25	9	6	3	1	75	10	1	102	6	3	12.05	49	1
10	25	9	6	3	1	75	10	1	103	6	6	310.39	49	7
10	25	9	6	3	1	75	10	1	104	6	8	176.31	49	4
10	25	9	6	3	1	75	10	1	104	6	8	410.88	49	9
10	25	9	6	3	1	75	10	1	105	6	5	309	49	7
10	25	9	6	3	1	75	10	1	105	6	5	510.3	49	11
10	25	9	6	3	1	75	10	1	106	6	9	322.92	49	7
10	25	9	6	3	1	75	10	1	106	6	9	557.32	49	12
10	25	9	6	3	1	75	10	1	107	16	10	277.76	49	6
10	25	9	6	3	1	75	10	1	108	6	4	638.84	49	13
10	25	9	6	3	1	75	10	1	109	16	1	7.83	49	1
10	25	9	6	3	1	75	10	1	110	6	2	0	-1	16
10	25	9	6	3	1	75	10	1	111	6	10	107.18	49	3
10	25	9	6	3	1	75	10	1	111	6	10	307.31	49	7
10	25	9	6	3	1	75	10	1	112	6	6	426.85	49	9
10	25	9	6	3	1	75	10	1	113	16	5	441.59	49	9
10	25	9	6	3	1	75	10	1	113	16	5	660.37	49	14
10	25	9	6	3	1	75	10	1	114	6	3	0	-1	16
10	25	9	6	3	1	75	10	1	115	6	7	167.92	49	4
10	25	9	6	3	1	75	10	1	115	6	7	410.4	49	9
10	25	9	6	3	1	75	10	1	116	16	3	726.01	49	15
10	25	9	6	3	1	75	10	1	117	16	6	12.14	49	1
10	25	9	6	3	1	75	10	1	118	16	8	0	-1	16
10	25	9	6	3	1	75	10	1	119	6	8	0	-1	16
10	25	9	6	3	1	75	10	1	120	6	1	28.94	49	1
10	25	9	6	3	1	75	10	1	120	6	1	257.47	49	6
10	25	9	6	3	1	75	10	1	121	16	5	220.25	49	5
10	25	9	6	3	1	75	10	1	122	6	5	710.15	49	15
10	25	9	6	3	1	75	10	1	123	6	2	8.55	49	1
10	25	9	6	3	1	75	10	1	124	16	4	272.02	49	6
10	25	9	6	3	1	75	10	1	125	16	9	0	-1	16
10	25	9	6	3	1	75	10	1	126	16	10	0	-1	16
10	25	9	6	3	1	75	10	1	127	6	10	580.74	49	12
10	25	9	6	3	1	75	10	1	127	6	10	783.12	49	16
10	25	9	6	3	1	75	10	1	128	16	2	11.03	49	1
10	25	9	6	3	1	75	10	1	129	16	6	0	-1	16
10	25	9	6	3	1	75	10	1	130	16	8	0	-1	16
10	25	9	6	3	1	75	10	1	131	16	7	11.73	49	1
10	25	9	6	3	1	75	10	1	131	16	7	260.37	49	6
10	25	9	6	3	1	75	10	1	132	6	9	0	-1	16
10	25	9	6	3	1	75	10	1	133	6	4	11.14	49	1
10	25	9	6	3	1	75	10	1	134	6	8	170.61	49	4
10	25	9	6	3	1	75	10	1	135	6	7	547.38	49	11
10	25	9	6	3	1	75	10	1	135	6	7	757.15	49	16
10	25	9	6	3	1	75	10	1	136	6	3	0	-1	16
10	25	9	6	3	1	75	10	1	137	6	6	407.53	49	9
10	25	9	6	3	1	75	10	1	138	6	1	568.86	49	12
10	25	9	6	3	1	75	10	1	139	16	3	0	-1	16
10	25	9	6	3	1	75	10	1	140	16	1	292.17	49	6
10	25	9	6	3	1	75	10	1	141	16	6	0	-1	16
10	25	9	6	3	1	75	10	1	142	6	7	0	-1	16
10	25	9	6	3	1	75	10	1	143	6	2	369.53	49	8
10	25	9	6	3	1	75	10	1	144	16	10	222.64	49	5
10	25	9	6	3	1	75	10	1	144	16	10	459.33	49	10
10	25	9	6	3	1	75	10	1	145	6	10	674.5	49	14
10	25	9	6	3	1	75	10	1	146	6	4	7.86	49	1
10	25	9	6	3	1	75	10	1	147	6	5	91.34	49	2
10	25	9	6	3	1	75	10	1	147	6	5	307.33	49	7
10	25	9	6	3	1	75	10	1	148	6	1	334.24	49	7
10	25	9	6	3	1	75	10	1	149	6	9	371.79	49	8
10	25	9	6	3	1	75	10	1	150	6	6	432.41	49	9
10	25	9	6	3	1	75	10	1	151	6	3	0	-1	16
10	25	9	6	3	1	75	10	1	152	6	8	158.57	49	4
10	25	9	6	3	1	75	10	1	153	6	7	109.91	49	3
10	25	9	6	3	1	75	10	1	154	6	9	141.75	49	3
10	25	9	6	3	1	75	10	1	155	6	4	259.97	49	6
10	25	9	6	3	1	75	10	1	156	6	2	260.25	49	6
10	25	9	6	3	1	75	10	1	156	6	2	460.8	49	10
10	25	9	6	3	1	75	10	1	157	6	10	490.83	49	10
10	25	9	6	3	1	75	10	1	158	6	5	661.88	49	14
10	25	9	6	3	1	75	10	1	159	6	1	9.01	49	1
10	25	9	6	3	1	75	10	1	160	6	3	223.53	49	5
10	25	9	6	3	1	75	10	1	161	16	4	163.02	49	4
10	25	9	6	3	1	75	10	1	162	6	6	783.53	49	16
10	25	9	6	3	1	75	10	1	163	16	8	7.98	49	1
10	25	9	6	3	1	75	10	1	164	6	8	0	-1	16
10	25	9	6	3	1	75	10	1	165	6	6	29.96	49	1
10	25	9	6	3	1	75	10	1	166	16	7	187.02	49	4
10	25	9	6	3	1	75	10	1	167	6	4	0	-1	16
10	25	9	6	3	1	75	10	1	168	6	5	160.11	49	4
10	25	9	6	3	1	75	10	1	168	6	5	360.14	49	8
10	25	9	6	3	1	75	10	1	169	6	10	369.38	49	8
10	25	9	6	3	1	75	10	1	170	6	9	560.41	49	12
10	25	9	6	3	1	75	10	1	171	6	7	589.8	49	12
10	25	9	6	3	1	75	10	1	172	16	5	8.93	49	1
10	25	9	6	3	1	75	10	1	173	6	2	0	-1	16
10	25	9	6	3	1	75	10	1	174	16	2	23.57	49	1
10	25	9	6	3	1	75	10	1	175	6	1	785.64	49	16
10	25	9	6	3	1	75	10	1	176	6	8	7.87	49	1
10	25	9	6	3	1	75	10	1	176	6	8	209.03	49	5
10	25	9	6	3	1	75	10	1	177	6	3	166.56	49	4
10	25	9	6	3	1	75	10	1	178	6	5	117.55	49	3
10	25	9	6	3	1	75	10	1	179	6	4	184.11	49	4
10	25	9	6	3	1	75	10	1	179	6	4	410.2	49	9
10	25	9	6	3	1	75	10	1	180	6	2	77.02	49	2
10	25	9	6	3	1	75	10	1	180	6	2	310.53	49	7
10	25	9	6	3	1	75	10	1	181	6	10	60.05	49	2
10	25	9	6	3	1	75	10	1	181	6	10	260.43	49	6
10	25	9	6	3	1	75	10	1	182	6	9	321.93	49	7
10	25	9	6	3	1	75	10	1	183	6	6	179.17	49	4
10	25	9	6	3	1	75	10	1	184	16	9	360.22	49	8
10	25	9	6	3	1	75	10	1	185	16	1	0	-1	16
10	25	9	6	3	1	75	10	1	186	6	8	0	-1	16
10	25	9	6	3	1	75	10	1	187	6	7	194.11	49	4
10	25	9	6	3	1	75	10	1	187	6	7	410.23	49	9
10	25	9	6	3	1	75	10	1	188	6	3	182.34	49	4
10	25	9	6	3	1	75	10	1	188	6	3	407.27	49	9
10	25	9	6	3	1	75	10	1	189	6	1	231.1	49	5
10	25	9	6	3	1	75	10	1	190	6	6	309.98	49	7
10	25	9	6	3	1	75	10	1	191	16	3	267.85	49	6
10	25	9	6	3	1	75	10	1	192	6	4	373.86	49	8
10	25	9	6	3	1	75	10	1	193	6	1	317.82	49	7
10	25	9	6	3	1	75	10	1	194	6	2	409.83	49	9
10	25	9	6	3	1	75	10	1	195	16	6	510.37	49	11
10	25	9	6	3	1	75	10	1	196	6	5	612.71	49	13
10	25	9	6	3	1	75	10	1	197	6	9	13.34	49	1
10	25	9	6	3	1	75	10	1	198	16	8	94.1	49	2
10	25	9	6	3	1	75	10	1	198	16	8	308.17	49	7
10	25	9	6	3	1	75	10	1	199	16	10	511.18	49	11
10	25	9	6	3	1	75	10	1	200	6	10	657.73	49	14
10	25	9	6	3	1	75	10	1	201	6	7	7.82	49	1
10	25	9	6	3	1	75	10	1	201	6	7	790.07	49	16
10	25	9	6	3	1	75	10	1	202	6	8	8	49	1
10	25	9	6	3	1	75	10	1	202	6	8	209.07	49	5
10	25	9	6	3	1	75	10	1	203	16	2	66.39	49	2
10	25	9	6	3	1	75	10	1	204	6	3	338.08	49	7
10	25	9	6	3	1	75	10	1	205	16	7	607.11	49	13
10	25	9	6	3	1	75	10	1	206	6	7	8.35	49	1
10	25	9	6	3	1	75	10	1	206	6	7	758.91	49	16
10	25	9	6	3	1	75	10	1	207	6	1	14.02	49	1
10	25	9	6	3	1	75	10	1	208	6	5	74.9	49	2
10	25	9	6	3	1	75	10	1	209	16	1	111.16	49	3
10	25	9	6	3	1	75	10	1	210	6	10	0	-1	16
10	25	9	6	3	1	75	10	1	211	6	4	61.62	49	2
10	25	9	6	3	1	75	10	1	212	16	4	10.34	49	1
10	25	9	6	3	1	75	10	1	213	6	2	0	-1	16
10	25	9	6	3	1	75	10	1	214	6	9	171.63	49	4
10	25	9	6	3	1	75	10	1	214	6	9	410.03	49	9
10	25	9	6	3	1	75	10	1	215	16	5	406.99	49	9
10	25	9	6	3	1	75	10	1	215	16	5	607.23	49	13
10	25	9	6	3	1	75	10	1	216	6	3	659.4	49	14
10	25	9	6	3	1	75	10	1	217	6	6	8.45	49	1
10	25	9	6	3	1	75	10	1	218	6	8	78.53	49	2
10	25	9	6	3	1	75	10	1	218	6	8	306.88	49	7
10	25	9	6	3	1	75	10	1	219	6	6	592.98	49	12
10	25	9	6	3	1	75	10	1	220	6	4	8.95	49	1
10	25	9	6	3	1	75	10	1	221	16	9	59.83	49	2
10	25	9	6	3	1	75	10	1	221	16	9	259.91	49	6
10	25	9	6	3	1	75	10	1	222	6	9	0	-1	16
10	25	9	6	3	1	75	10	1	223	6	10	60.86	49	2
10	25	9	6	3	1	75	10	1	223	6	10	262.95	49	6
10	25	9	6	3	1	75	10	1	224	6	1	630.93	49	13
10	25	9	6	3	1	75	10	1	225	16	3	10.55	49	1
10	25	9	6	3	1	75	10	1	226	6	2	0	-1	16
10	25	9	6	3	1	75	10	1	227	6	7	578.43	49	12
10	25	9	6	3	1	75	10	1	228	6	5	7.95	49	1
10	25	9	6	3	1	75	10	1	229	6	8	84.05	49	2
10	25	9	6	3	1	75	10	1	229	6	8	306.95	49	7
10	25	9	6	3	1	75	10	1	230	6	3	0	-1	16
10	25	9	6	3	1	75	10	1	231	6	6	659.69	49	14
10	25	9	6	3	1	75	10	1	232	16	6	8.34	49	1
10	25	9	6	3	1	75	10	1	233	16	7	338.1	49	7
10	25	9	6	3	1	75	10	1	233	16	7	562.58	49	12
10	25	9	6	3	1	75	10	1	234	6	5	629.05	49	13
10	25	9	6	3	1	75	10	1	235	6	7	10.96	49	1
10	25	9	6	3	1	75	10	1	236	16	8	317.31	49	7
10	25	9	6	3	1	75	10	1	237	6	1	669.26	49	14
10	25	9	6	3	1	75	10	1	238	6	2	12.42	49	1
10	25	9	6	3	1	75	10	1	239	6	8	333.11	49	7
10	25	9	6	3	1	75	10	1	240	6	4	359.96	49	8
10	25	9	6	3	1	75	10	1	240	6	4	560.01	49	12
10	25	9	6	3	1	75	10	1	241	6	9	385.89	49	8
10	25	9	6	3	1	75	10	1	242	6	10	391.31	49	8
10	25	9	6	3	1	75	10	1	243	6	3	686.58	49	14
10	25	9	6	3	1	75	10	1	244	16	5	8.69	49	1
10	25	9	6	3	1	75	10	1	245	6	7	661.18	49	14
10	25	9	6	3	1	75	10	1	246	6	10	12.75	49	1
10	25	9	6	3	1	75	10	1	247	6	4	311.09	49	7
10	25	9	6	3	1	75	10	1	247	6	4	512.35	49	11
10	25	9	6	3	1	75	10	1	248	6	2	460.34	49	10
10	25	9	6	3	1	75	10	1	248	6	2	661.53	49	14
10	25	9	6	3	1	75	10	1	249	6	5	729.51	49	15
10	25	9	6	3	1	75	10	1	250	16	2	9.48	49	1
10	25	9	6	3	1	75	10	1	251	16	1	629.06	49	13
10	25	9	6	3	1	75	10	1	252	6	1	10.77	49	1
10	25	9	6	3	1	75	10	1	253	16	4	114.5	49	3
10	25	9	6	3	1	75	10	1	254	6	9	0	-1	16
10	25	9	6	3	1	75	10	1	255	6	6	88.79	49	2
10	25	9	6	3	1	75	10	1	256	6	3	173.71	49	4
10	25	9	6	3	1	75	10	1	257	6	8	242.47	49	5
10	25	9	6	3	1	75	10	1	257	6	8	458.16	49	10
10	25	9	6	3	1	75	10	1	258	6	6	359.22	49	8
10	25	9	6	3	1	75	10	1	259	6	2	0	-1	16
10	25	9	6	3	1	75	10	1	260	6	7	10.43	49	1
10	25	9	6	3	1	75	10	1	260	6	7	210.56	49	5
10	25	9	6	3	1	75	10	1	261	16	9	282.63	49	6
10	25	9	6	3	1	75	10	1	261	16	9	510.2	49	11
10	25	9	6	3	1	75	10	1	262	6	8	660.35	49	14
10	25	9	6	3	1	75	10	1	263	6	5	9.82	49	1
10	25	9	6	3	1	75	10	1	264	6	9	110.74	49	3
10	25	9	6	3	1	75	10	1	264	6	9	310.75	49	7
10	25	9	6	3	1	75	10	1	265	16	10	160.6	49	4
10	25	9	6	3	1	75	10	1	266	6	1	0	-1	16
10	25	9	6	3	1	75	10	1	267	6	4	533.82	49	11
10	25	9	6	3	1	75	10	1	267	6	4	757.14	49	16
10	25	9	6	3	1	75	10	1	268	6	10	0	-1	16
10	25	9	6	3	1	75	10	1	269	16	3	409.97	49	9
10	25	9	6	3	1	75	10	1	270	6	3	689.15	49	14
10	25	9	6	3	1	75	10	1	271	16	7	8.58	49	1
10	25	9	6	3	1	75	10	1	272	6	6	75.46	49	2
10	25	9	6	3	1	75	10	1	273	16	1	127.18	49	3
10	25	9	6	3	1	75	10	1	273	16	1	360.03	49	8
10	25	9	6	3	1	75	10	1	274	6	8	310.31	49	7
10	25	9	6	3	1	75	10	1	274	6	8	510.34	49	11
10	25	9	6	3	1	75	10	1	275	6	4	671.82	49	14
10	25	9	6	3	1	75	10	1	276	16	10	9.87	49	1
10	25	9	6	3	1	75	10	1	277	6	10	635.32	49	13
10	25	9	6	3	1	75	10	1	278	6	2	8.4	49	1
10	25	9	6	3	1	75	10	1	279	6	9	778.55	49	16
10	25	9	6	3	1	75	10	1	280	6	1	7.94	49	1
10	25	9	6	3	1	75	10	1	281	6	5	0	-1	16
10	25	9	6	3	1	75	10	1	282	6	7	277.01	49	6
10	25	9	6	3	1	75	10	1	283	6	3	624.53	49	13
10	25	9	6	3	1	75	10	1	284	6	2	8.4	49	1
10	25	9	6	3	1	75	10	1	285	6	10	160.55	49	4
10	25	9	6	3	1	75	10	1	285	6	10	360.66	49	8
10	25	9	6	3	1	75	10	1	286	6	9	709.96	49	15
10	25	9	6	3	1	75	10	1	287	6	8	12.98	49	1
10	25	9	6	3	1	75	10	1	288	16	9	760.28	49	16
10	25	9	6	3	1	75	10	1	289	6	5	12.22	49	1
10	25	9	6	3	1	75	10	1	290	6	1	560.87	49	12
10	25	9	6	3	1	75	10	1	291	6	7	0	-1	16
10	25	9	6	3	1	75	10	1	292	16	2	619.29	49	13
10	25	9	6	3	1	75	10	1	293	6	3	0	-1	16
10	25	9	6	3	1	75	10	1	294	6	6	485.8	49	10
10	25	9	6	3	1	75	10	1	294	6	6	710.05	49	15
10	25	9	6	3	1	75	10	1	295	6	4	0	-1	16
10	25	9	6	3	1	75	10	1	296	16	5	132.83	49	3
10	25	9	6	3	1	75	10	1	296	16	5	357.59	49	8
10	25	9	6	3	1	75	10	1	297	16	4	614.54	49	13
10	25	9	6	3	1	75	10	1	298	6	2	0	-1	16
10	25	9	6	3	1	75	10	1	299	6	9	283.26	49	6
10	25	9	6	3	1	75	10	1	299	6	9	517.34	49	11
10	25	9	6	3	1	75	10	1	300	6	10	337.41	49	7
10	25	9	6	3	1	75	10	1	301	16	6	234.21	49	5
10	25	9	6	3	1	75	10	1	302	6	1	759.75	49	16
10	25	9	6	3	1	75	10	1	303	6	8	8.14	49	1
10	25	9	6	3	1	75	10	1	304	16	3	159.37	49	4
10	25	9	6	3	1	75	10	1	304	16	3	360.08	49	8
10	25	9	6	3	1	75	10	1	305	6	6	759.43	49	16
10	25	9	6	3	1	75	10	1	306	16	8	10.5	49	1
10	25	9	6	3	1	75	10	1	307	6	7	660.74	49	14
10	25	9	6	3	1	75	10	1	308	6	3	10.32	49	1
10	25	9	6	3	1	75	10	1	309	16	7	189.22	49	4
10	25	9	6	3	1	75	10	1	309	16	7	409.23	49	9
10	25	9	6	3	1	75	10	1	310	16	1	0	-1	16
10	25	9	6	3	1	75	10	1	311	6	5	694.96	49	14
10	25	9	6	3	1	75	10	1	312	6	4	8.4	49	1
10	25	9	6	3	1	75	10	1	313	6	7	8.43	49	1
10	25	9	6	3	1	75	10	1	314	16	9	174.08	49	4
10	25	9	6	3	1	75	10	1	315	6	9	420.47	49	9
10	25	9	6	3	1	75	10	1	316	16	4	594.15	49	12
10	25	9	6	3	1	75	10	1	317	6	2	8.27	49	1
10	25	9	6	3	1	75	10	1	318	6	4	40.2	49	1
10	25	9	6	3	1	75	10	1	319	16	5	36.82	49	1
10	25	9	6	3	1	75	10	1	320	6	5	667.18	49	14
10	25	9	6	3	1	75	10	1	321	6	1	11.17	49	1
10	25	9	6	3	1	75	10	1	322	6	10	41.65	49	1
10	25	9	6	3	1	75	10	1	323	16	10	61.25	49	2
10	25	9	6	3	1	75	10	1	324	16	2	0	-1	16
10	25	9	6	3	1	75	10	1	325	6	6	288.43	49	6
10	25	9	6	3	1	75	10	1	325	6	6	507.56	49	11
10	25	9	6	3	1	75	10	1	326	6	3	0	-1	16
10	25	9	6	3	1	75	10	1	327	6	8	110.28	49	3
10	25	9	6	3	1	75	10	1	328	6	5	395.98	49	8
10	25	9	6	3	1	75	10	1	328	6	5	610.09	49	13
10	25	9	6	3	1	75	10	1	329	6	10	0	-1	16
10	25	9	6	3	1	75	10	1	330	6	4	166.75	49	4
10	25	9	6	3	1	75	10	1	330	6	4	409.76	49	9
10	25	9	6	3	1	75	10	1	331	6	9	0	-1	16
10	25	9	6	3	1	75	10	1	332	6	2	168.54	49	4
10	25	9	6	3	1	75	10	1	333	6	8	710.25	49	15
10	25	9	6	3	1	75	10	1	334	6	7	10.75	49	1
10	25	9	6	3	1	75	10	1	335	6	3	271.97	49	6
10	25	9	6	3	1	75	10	1	336	6	6	626.13	49	13
10	25	9	6	3	1	75	10	1	337	6	1	10.51	49	1
10	25	9	6	3	1	75	10	1	338	6	7	193.75	49	4
10	25	9	6	3	1	75	10	1	338	6	7	410.49	49	9
10	25	9	6	3	1	75	10	1	339	6	9	509.66	49	11
10	25	9	6	3	1	75	10	1	339	6	9	709.77	49	15
10	25	9	6	3	1	75	10	1	340	6	4	0	-1	16
10	25	9	6	3	1	75	10	1	341	6	10	16.89	49	1
10	25	9	6	3	1	75	10	1	341	6	10	259.16	49	6
10	25	9	6	3	1	75	10	1	342	6	5	164.15	49	4
10	25	9	6	3	1	75	10	1	343	16	6	76.5	49	2
10	25	9	6	3	1	75	10	1	344	16	3	0	-1	16
10	25	9	6	3	1	75	10	1	345	16	8	0	-1	16
10	25	9	6	3	1	75	10	1	346	6	2	665.79	49	14
10	25	9	6	3	1	75	10	1	347	16	2	12.63	49	1
10	25	9	6	3	1	75	10	1	348	6	1	0	-1	16
10	25	9	6	3	1	75	10	1	349	6	3	158.59	49	4
10	25	9	6	3	1	75	10	1	349	6	3	360.67	49	8
10	25	9	6	3	1	75	10	1	350	6	6	259.1	49	6
10	25	9	6	3	1	75	10	1	350	6	6	460.02	49	10
10	25	9	6	3	1	75	10	1	351	6	8	225.77	49	5
10	25	9	6	3	1	75	10	1	352	6	2	312.93	49	7
10	25	9	6	3	1	75	10	1	353	6	9	612.17	49	13
10	25	9	6	3	1	75	10	1	354	6	10	8.22	49	1
10	25	9	6	3	1	75	10	1	354	6	10	445.9	49	9
10	25	9	6	3	1	75	10	1	354	6	10	660.13	49	14
10	25	9	6	3	1	75	10	1	355	6	7	407.05	49	9
10	25	9	6	3	1	75	10	1	355	6	7	609.53	49	13
10	25	9	6	3	1	75	10	1	356	16	9	437.72	49	9
10	25	9	6	3	1	75	10	1	356	16	9	659.21	49	14
10	25	9	6	3	1	75	10	1	357	6	1	636.22	49	13
10	25	9	6	3	1	75	10	1	358	6	6	10.29	49	1
10	25	9	6	3	1	75	10	1	358	6	6	783.63	49	16
10	25	9	6	3	1	75	10	1	359	6	5	10.46	49	1
10	25	9	6	3	1	75	10	1	360	6	8	61.57	49	2
10	25	9	6	3	1	75	10	1	361	6	3	412.22	49	9
10	25	9	6	3	1	75	10	1	361	6	3	612.68	49	13
10	25	9	6	3	1	75	10	1	362	6	4	665.52	49	14
10	25	9	6	3	1	75	10	1	363	6	5	9.01	49	1
10	25	9	6	3	1	75	10	1	364	6	2	227.91	49	5
10	25	9	6	3	1	75	10	1	364	6	2	459.58	49	10
10	25	9	6	3	1	75	10	1	365	16	10	284.27	49	6
10	25	9	6	3	1	75	10	1	365	16	10	509.42	49	11
10	25	9	6	3	1	75	10	1	366	6	10	760.21	49	16
10	25	9	6	3	1	75	10	1	367	6	9	10.81	49	1
10	25	9	6	3	1	75	10	1	368	6	4	59.48	49	2
10	25	9	6	3	1	75	10	1	369	6	3	157.99	49	4
10	25	9	6	3	1	75	10	1	370	6	8	186.08	49	4
10	25	9	6	3	1	75	10	1	371	6	7	129.03	49	3
10	25	9	6	3	1	75	10	1	371	6	7	362.19	49	8
10	25	9	6	3	1	75	10	1	372	6	6	139.14	49	3
10	25	9	6	3	1	75	10	1	372	6	6	360.65	49	8
10	25	9	6	3	1	75	10	1	373	6	1	81.91	49	2
10	25	9	6	3	1	75	10	1	374	6	2	359.75	49	8
10	25	9	6	3	1	75	10	1	374	6	2	561	49	12
10	25	9	6	3	1	75	10	1	375	6	10	184.51	49	4
10	25	9	6	3	1	75	10	1	376	6	9	176.52	49	4
10	25	9	6	3	1	75	10	1	376	6	9	407.94	49	9
10	25	9	6	3	1	75	10	1	377	6	7	194.1	49	4
10	25	9	6	3	1	75	10	1	377	6	7	410.07	49	9
10	25	9	6	3	1	75	10	1	378	16	7	343.38	49	7
10	25	9	6	3	1	75	10	1	379	16	3	0	-1	16
10	25	9	6	3	1	75	10	1	380	16	5	16.21	49	1
10	25	9	6	3	1	75	10	1	380	16	5	259.21	49	6
10	25	9	6	3	1	75	10	1	381	6	5	712.89	49	15
10	25	9	6	3	1	75	10	1	382	16	6	9.08	49	1
10	25	9	6	3	1	75	10	1	383	6	8	0	-1	16
10	25	9	6	3	1	75	10	1	384	6	1	38.61	49	1
10	25	9	6	3	1	75	10	1	384	6	1	260.08	49	6
10	25	9	6	3	1	75	10	1	385	6	6	312.93	49	7
10	25	9	6	3	1	75	10	1	386	6	3	370.58	49	8
10	25	9	6	3	1	75	10	1	387	16	8	518.15	49	11
10	25	9	6	3	1	75	10	1	388	6	4	0	-1	16
10	25	9	6	3	1	75	10	1	389	6	7	111.92	49	3
10	25	9	6	3	1	75	10	1	390	6	1	611.31	49	13
10	25	9	6	3	1	75	10	1	391	6	2	7.42	49	1
10	25	9	6	3	1	75	10	1	392	6	5	427.41	49	9
10	25	9	6	3	1	75	10	1	393	16	1	337.53	49	7
10	25	9	6	3	1	75	10	1	393	16	1	560.98	49	12
10	25	9	6	3	1	75	10	1	394	6	10	0	-1	16
10	25	9	6	3	1	75	10	1	395	16	4	0	-1	16
10	25	9	6	3	1	75	10	1	396	6	4	0	-1	16
10	25	9	6	3	1	75	10	1	397	6	9	275.78	49	6
10	25	9	6	3	1	75	10	1	397	6	9	511.62	49	11
10	25	9	6	3	1	75	10	1	398	6	6	117.13	49	3
10	25	9	6	3	1	75	10	1	398	6	6	361.57	49	8
10	25	9	6	3	1	75	10	1	399	6	3	208.64	49	5
10	25	9	6	3	1	75	10	1	400	6	8	343.54	49	7
10	25	9	6	3	1	75	10	1	400	6	8	560.85	49	12
10	25	9	6	3	1	75	10	1	401	16	5	642.16	49	13
10	25	9	6	3	1	75	10	1	402	6	6	8.63	49	1
10	25	9	6	3	1	75	10	1	403	16	9	173.63	49	4
10	25	9	6	3	1	75	10	1	403	16	9	409.3	49	9
10	25	9	6	3	1	75	10	1	404	6	10	357.33	49	8
10	25	9	6	3	1	75	10	1	404	6	10	558.14	49	12
10	25	9	6	3	1	75	10	1	405	6	9	545.75	49	11
10	25	9	6	3	1	75	10	1	405	6	9	757.55	49	16
10	25	9	6	3	1	75	10	1	406	16	2	0	-1	16
10	25	9	6	3	1	75	10	1	407	16	10	777.53	49	16
10	25	9	6	3	1	75	10	1	408	6	5	11.12	49	1
10	25	9	6	3	1	75	10	1	408	6	5	765.27	49	16
10	25	9	6	3	1	75	10	1	409	16	4	11.58	49	1
10	25	9	6	3	1	75	10	1	410	16	6	86.96	49	2
10	25	9	6	3	1	75	10	1	410	16	6	309.99	49	7
10	25	9	6	3	1	75	10	1	411	6	7	0	-1	16
10	25	9	6	3	1	75	10	1	412	16	7	309.3	49	7
10	25	9	6	3	1	75	10	1	413	6	4	0	-1	16
10	25	9	6	3	1	75	10	1	414	16	8	28.31	49	1
10	25	9	6	3	1	75	10	1	415	6	2	766.56	49	16
10	25	9	6	3	1	75	10	1	416	6	1	8.05	49	1
10	25	9	6	3	1	75	10	1	417	6	8	64.79	49	2
10	25	9	6	3	1	75	10	1	418	6	3	0	-1	16
10	25	9	6	3	1	75	10	1	419	6	2	8.23	49	1
10	25	9	6	3	1	75	10	1	419	6	2	209.13	49	5
10	25	9	6	3	1	75	10	1	420	6	10	707.9	49	15
10	25	9	6	3	1	75	10	1	421	16	3	8.71	49	1
10	25	9	6	3	1	75	10	1	421	16	3	257.29	49	6
10	25	9	6	3	1	75	10	1	422	6	9	0	-1	16
10	25	9	6	3	1	75	10	1	423	16	1	109.65	49	3
10	25	9	6	3	1	75	10	1	423	16	1	309.66	49	7
10	25	9	6	3	1	75	10	1	424	6	7	0	-1	16
10	25	9	6	3	1	75	10	1	425	6	6	210.28	49	5
10	25	9	6	3	1	75	10	1	425	6	6	412.64	49	9
10	25	9	6	3	1	75	10	1	426	16	6	574.55	49	12
10	25	9	6	3	1	75	10	1	427	6	5	763.24	49	16
10	25	9	6	3	1	75	10	1	428	16	7	8.08	49	1
10	25	9	6	3	1	75	10	1	429	6	8	707.53	49	15
10	25	9	6	3	1	75	10	1	430	6	1	7.65	49	1
10	25	9	6	3	1	75	10	1	431	16	1	60.6	49	2
10	25	9	6	3	1	75	10	1	432	6	3	0	-1	16
10	25	9	6	3	1	75	10	1	433	6	4	159.7	49	4
10	25	9	6	3	1	75	10	1	434	6	6	624.01	49	13
10	25	9	6	3	1	75	10	1	435	6	1	10.15	49	1
10	25	9	6	3	1	75	10	1	436	6	4	623.88	49	13
10	25	9	6	3	1	75	10	1	437	6	10	12.37	49	1
10	25	9	6	3	1	75	10	1	438	6	5	234.5	49	5
10	25	9	6	3	1	75	10	1	438	6	5	461.85	49	10
10	25	9	6	3	1	75	10	1	439	16	10	509.85	49	11
10	25	9	6	3	1	75	10	1	440	6	7	727.48	49	15
10	25	9	6	3	1	75	10	1	441	6	2	8.14	49	1
10	25	9	6	3	1	75	10	1	442	6	9	269.31	49	6
10	25	9	6	3	1	75	10	1	443	6	8	191.53	49	4
10	25	9	6	3	1	75	10	1	444	6	3	196.79	49	4
10	25	9	6	3	1	75	10	1	444	6	3	409.29	49	9
10	25	9	6	3	1	75	10	1	445	6	5	138.78	49	3
10	25	9	6	3	1	75	10	1	446	6	4	17.03	49	1
10	25	9	6	3	1	75	10	1	447	6	9	21.59	49	1
10	25	9	6	3	1	75	10	1	448	6	2	12.1	49	1
10	25	9	6	3	1	75	10	1	449	6	10	18.41	49	1
10	25	9	6	3	1	75	10	1	450	6	8	31.42	49	1
