SubjectNum	Age	Gender	PressedTask	Block Type	Block Repeat Num	Response Rate	Onset	Block	Trial	ImgType	ImgNum	RT	PressedC	FrameC
7	23	9	6	3	1	75	10	1	1	6	5	821	49	15
7	23	9	6	3	1	75	10	1	2	6	10	9.66	49	1
7	23	9	6	3	1	75	10	1	3	6	4	31.55	49	1
7	23	9	6	3	1	75	10	1	3	6	4	717.78	49	15
7	23	9	6	3	1	75	10	1	4	6	9	11.32	49	1
7	23	9	6	3	1	75	10	1	4	6	9	728.53	49	15
7	23	9	6	3	1	75	10	1	5	16	7	14.56	49	1
7	23	9	6	3	1	75	10	1	6	6	2	0	-1	16
7	23	9	6	3	1	75	10	1	7	6	3	258.24	49	6
7	23	9	6	3	1	75	10	1	7	6	3	659.86	49	14
7	23	9	6	3	1	75	10	1	8	16	9	0	-1	16
7	23	9	6	3	1	75	10	1	9	6	8	618.92	49	13
7	23	9	6	3	1	75	10	1	10	16	2	0	-1	16
7	23	9	6	3	1	75	10	1	11	6	7	639.72	49	13
7	23	9	6	3	1	75	10	1	12	6	6	765.5	49	16
7	23	9	6	3	1	75	10	1	13	6	1	10.95	49	1
7	23	9	6	3	1	75	10	1	14	16	5	85.21	49	2
7	23	9	6	3	1	75	10	1	15	6	5	592.67	49	12
7	23	9	6	3	1	75	10	1	16	6	2	742.62	49	15
7	23	9	6	3	1	75	10	1	17	6	4	10.21	49	1
7	23	9	6	3	1	75	10	1	17	6	4	760.05	49	16
7	23	9	6	3	1	75	10	1	18	6	9	8.39	49	1
7	23	9	6	3	1	75	10	1	18	6	9	712.29	49	15
7	23	9	6	3	1	75	10	1	19	6	10	9.46	49	1
7	23	9	6	3	1	75	10	1	19	6	10	744.87	49	15
7	23	9	6	3	1	75	10	1	20	16	1	9.03	49	1
7	23	9	6	3	1	75	10	1	21	6	3	680.36	49	14
7	23	9	6	3	1	75	10	1	22	16	10	13.47	49	1
7	23	9	6	3	1	75	10	1	23	6	7	567.85	49	12
7	23	9	6	3	1	75	10	1	24	16	4	0	-1	16
7	23	9	6	3	1	75	10	1	25	6	8	631.64	49	13
7	23	9	6	3	1	75	10	1	26	16	3	0	-1	16
7	23	9	6	3	1	75	10	1	27	6	6	480.76	49	10
7	23	9	6	3	1	75	10	1	28	6	1	0	-1	16
7	23	9	6	3	1	75	10	1	29	6	6	137.31	49	3
7	23	9	6	3	1	75	10	1	30	6	1	15.87	49	1
7	23	9	6	3	1	75	10	1	30	6	1	758.02	49	16
7	23	9	6	3	1	75	10	1	31	16	6	10.81	49	1
7	23	9	6	3	1	75	10	1	32	6	9	660.52	49	14
7	23	9	6	3	1	75	10	1	33	6	8	788.28	49	16
7	23	9	6	3	1	75	10	1	34	6	10	10.55	49	1
7	23	9	6	3	1	75	10	1	34	6	10	659.85	49	14
7	23	9	6	3	1	75	10	1	35	16	8	659.3	49	14
7	23	9	6	3	1	75	10	1	36	6	7	522.47	49	11
7	23	9	6	3	1	75	10	1	37	6	4	0	-1	16
7	23	9	6	3	1	75	10	1	38	6	2	14.41	49	1
7	23	9	6	3	1	75	10	1	39	6	5	118.29	49	3
7	23	9	6	3	1	75	10	1	39	6	5	730.19	49	15
7	23	9	6	3	1	75	10	1	40	16	7	8.08	49	1
7	23	9	6	3	1	75	10	1	41	16	4	516.49	49	11
7	23	9	6	3	1	75	10	1	42	6	3	626.37	49	13
7	23	9	6	3	1	75	10	1	43	6	7	0	-1	16
7	23	9	6	3	1	75	10	1	44	6	5	77.04	49	2
7	23	9	6	3	1	75	10	1	44	6	5	759.6	49	16
7	23	9	6	3	1	75	10	1	45	6	2	10.8	49	1
7	23	9	6	3	1	75	10	1	45	6	2	661.67	49	14
7	23	9	6	3	1	75	10	1	46	6	1	658.96	49	14
7	23	9	6	3	1	75	10	1	47	6	9	658.38	49	14
7	23	9	6	3	1	75	10	1	48	6	4	608.07	49	13
7	23	9	6	3	1	75	10	1	49	16	5	0	-1	16
7	23	9	6	3	1	75	10	1	50	16	1	0	-1	16
7	23	9	6	3	1	75	10	1	51	6	10	707.82	49	15
7	23	9	6	3	1	75	10	1	52	6	6	9.81	49	1
7	23	9	6	3	1	75	10	1	52	6	6	759.57	49	16
7	23	9	6	3	1	75	10	1	53	6	3	14.5	49	1
7	23	9	6	3	1	75	10	1	53	6	3	644.34	49	13
7	23	9	6	3	1	75	10	1	54	6	8	709.95	49	15
7	23	9	6	3	1	75	10	1	55	16	2	11.01	49	1
7	23	9	6	3	1	75	10	1	56	6	2	724.98	49	15
7	23	9	6	3	1	75	10	1	57	6	10	10.17	49	1
7	23	9	6	3	1	75	10	1	58	6	9	626.5	49	13
7	23	9	6	3	1	75	10	1	59	16	10	561.86	49	12
7	23	9	6	3	1	75	10	1	60	6	1	642.51	49	13
7	23	9	6	3	1	75	10	1	61	6	8	731.54	49	15
7	23	9	6	3	1	75	10	1	62	6	3	9.41	49	1
7	23	9	6	3	1	75	10	1	62	6	3	736.98	49	15
7	23	9	6	3	1	75	10	1	63	6	6	8.15	49	1
7	23	9	6	3	1	75	10	1	64	6	5	0	-1	16
7	23	9	6	3	1	75	10	1	65	6	7	8.71	49	1
7	23	9	6	3	1	75	10	1	65	6	7	761.36	49	16
7	23	9	6	3	1	75	10	1	66	6	4	10.76	49	1
7	23	9	6	3	1	75	10	1	67	6	7	79.98	49	2
7	23	9	6	3	1	75	10	1	68	6	4	31.46	49	1
7	23	9	6	3	1	75	10	1	68	6	4	760.69	49	16
7	23	9	6	3	1	75	10	1	69	6	10	9.8	49	1
7	23	9	6	3	1	75	10	1	70	6	2	58.73	49	2
7	23	9	6	3	1	75	10	1	70	6	2	708.93	49	15
7	23	9	6	3	1	75	10	1	71	6	1	7.96	49	1
7	23	9	6	3	1	75	10	1	71	6	1	709.18	49	15
7	23	9	6	3	1	75	10	1	72	6	9	9.65	49	1
7	23	9	6	3	1	75	10	1	72	6	9	657.16	49	14
7	23	9	6	3	1	75	10	1	73	6	5	611.3	49	13
7	23	9	6	3	1	75	10	1	74	6	6	614.13	49	13
7	23	9	6	3	1	75	10	1	75	6	3	710.03	49	15
7	23	9	6	3	1	75	10	1	76	6	8	8.52	49	1
7	23	9	6	3	1	75	10	1	77	6	5	58.88	49	2
7	23	9	6	3	1	75	10	1	77	6	5	627.65	49	13
7	23	9	6	3	1	75	10	1	78	16	9	0	-1	16
7	23	9	6	3	1	75	10	1	79	16	6	0	-1	16
7	23	9	6	3	1	75	10	1	80	16	3	0	-1	16
7	23	9	6	3	1	75	10	1	81	16	8	0	-1	16
7	23	9	6	3	1	75	10	1	82	6	4	674.21	49	14
7	23	9	6	3	1	75	10	1	83	16	7	9.51	49	1
7	23	9	6	3	1	75	10	1	84	6	10	710.3	49	15
7	23	9	6	3	1	75	10	1	85	6	2	8.02	49	1
7	23	9	6	3	1	75	10	1	85	6	2	691.84	49	14
7	23	9	6	3	1	75	10	1	86	6	9	7.83	49	1
7	23	9	6	3	1	75	10	1	86	6	9	707.88	49	15
7	23	9	6	3	1	75	10	1	87	6	7	10.33	49	1
7	23	9	6	3	1	75	10	1	88	6	8	166.06	49	4
7	23	9	6	3	1	75	10	1	88	6	8	778.89	49	16
7	23	9	6	3	1	75	10	1	89	6	6	9.48	49	1
7	23	9	6	3	1	75	10	1	89	6	6	719.6	49	15
7	23	9	6	3	1	75	10	1	90	6	3	13.58	49	1
7	23	9	6	3	1	75	10	1	90	6	3	693.76	49	14
7	23	9	6	3	1	75	10	1	91	6	1	13.81	49	1
7	23	9	6	3	1	75	10	1	92	6	7	16.68	49	1
7	23	9	6	3	1	75	10	1	92	6	7	777.15	49	16
7	23	9	6	3	1	75	10	1	93	16	9	11.21	49	1
7	23	9	6	3	1	75	10	1	94	6	5	585.95	49	12
7	23	9	6	3	1	75	10	1	95	6	2	658.56	49	14
7	23	9	6	3	1	75	10	1	96	6	1	8.4	49	1
7	23	9	6	3	1	75	10	1	96	6	1	721.07	49	15
7	23	9	6	3	1	75	10	1	97	6	9	8.18	49	1
7	23	9	6	3	1	75	10	1	97	6	9	640.77	49	13
7	23	9	6	3	1	75	10	1	98	16	2	0	-1	16
7	23	9	6	3	1	75	10	1	99	6	4	560.44	49	12
7	23	9	6	3	1	75	10	1	100	16	4	0	-1	16
7	23	9	6	3	1	75	10	1	101	6	10	685.66	49	14
7	23	9	6	3	1	75	10	1	102	6	3	10.15	49	1
7	23	9	6	3	1	75	10	1	102	6	3	612.38	49	13
7	23	9	6	3	1	75	10	1	103	6	6	735.8	49	15
7	23	9	6	3	1	75	10	1	104	6	8	9.13	49	1
7	23	9	6	3	1	75	10	1	105	6	5	44.74	49	1
7	23	9	6	3	1	75	10	1	105	6	5	557.56	49	12
7	23	9	6	3	1	75	10	1	106	6	9	757.48	49	16
7	23	9	6	3	1	75	10	1	107	16	10	7.89	49	1
7	23	9	6	3	1	75	10	1	108	6	4	646.93	49	13
7	23	9	6	3	1	75	10	1	109	16	1	7.58	49	1
7	23	9	6	3	1	75	10	1	109	16	1	762.68	49	16
7	23	9	6	3	1	75	10	1	110	6	2	8.59	49	1
7	23	9	6	3	1	75	10	1	111	6	10	65.19	49	2
7	23	9	6	3	1	75	10	1	112	6	6	36.08	49	1
7	23	9	6	3	1	75	10	1	112	6	6	709.78	49	15
7	23	9	6	3	1	75	10	1	113	16	5	10.79	49	1
7	23	9	6	3	1	75	10	1	114	6	3	585.11	49	12
7	23	9	6	3	1	75	10	1	115	6	7	0	-1	16
7	23	9	6	3	1	75	10	1	116	16	3	24.57	49	1
7	23	9	6	3	1	75	10	1	117	16	6	0	-1	16
7	23	9	6	3	1	75	10	1	118	16	8	0	-1	16
7	23	9	6	3	1	75	10	1	119	6	8	592.29	49	12
7	23	9	6	3	1	75	10	1	120	6	1	734.48	49	15
7	23	9	6	3	1	75	10	1	121	16	5	9.05	49	1
7	23	9	6	3	1	75	10	1	122	6	5	611.36	49	13
7	23	9	6	3	1	75	10	1	123	6	2	709.8	49	15
7	23	9	6	3	1	75	10	1	124	16	4	10.45	49	1
7	23	9	6	3	1	75	10	1	125	16	9	0	-1	16
7	23	9	6	3	1	75	10	1	126	16	10	0	-1	16
7	23	9	6	3	1	75	10	1	127	6	10	728.11	49	15
7	23	9	6	3	1	75	10	1	128	16	2	8.98	49	1
7	23	9	6	3	1	75	10	1	129	16	6	0	-1	16
7	23	9	6	3	1	75	10	1	130	16	8	0	-1	16
7	23	9	6	3	1	75	10	1	131	16	7	0	-1	16
7	23	9	6	3	1	75	10	1	132	6	9	0	-1	16
7	23	9	6	3	1	75	10	1	133	6	4	12.23	49	1
7	23	9	6	3	1	75	10	1	133	6	4	620.77	49	13
7	23	9	6	3	1	75	10	1	134	6	8	684.79	49	14
7	23	9	6	3	1	75	10	1	135	6	7	11.36	49	1
7	23	9	6	3	1	75	10	1	135	6	7	718.81	49	15
7	23	9	6	3	1	75	10	1	136	6	3	13.02	49	1
7	23	9	6	3	1	75	10	1	136	6	3	736.98	49	15
7	23	9	6	3	1	75	10	1	137	6	6	12.06	49	1
7	23	9	6	3	1	75	10	1	137	6	6	611.34	49	13
7	23	9	6	3	1	75	10	1	138	6	1	792.44	49	16
7	23	9	6	3	1	75	10	1	139	16	3	10.45	49	1
7	23	9	6	3	1	75	10	1	140	16	1	0	-1	16
7	23	9	6	3	1	75	10	1	141	16	6	0	-1	16
7	23	9	6	3	1	75	10	1	142	6	7	0	-1	16
7	23	9	6	3	1	75	10	1	143	6	2	32.71	49	1
7	23	9	6	3	1	75	10	1	143	6	2	770.87	49	16
7	23	9	6	3	1	75	10	1	144	16	10	8.77	49	1
7	23	9	6	3	1	75	10	1	145	6	10	715.53	49	15
7	23	9	6	3	1	75	10	1	146	6	4	8.97	49	1
7	23	9	6	3	1	75	10	1	147	6	5	27.59	49	1
7	23	9	6	3	1	75	10	1	147	6	5	763.02	49	16
7	23	9	6	3	1	75	10	1	148	6	1	11.06	49	1
7	23	9	6	3	1	75	10	1	148	6	1	720.49	49	15
7	23	9	6	3	1	75	10	1	149	6	9	10.34	49	1
7	23	9	6	3	1	75	10	1	149	6	9	660.04	49	14
7	23	9	6	3	1	75	10	1	150	6	6	659.81	49	14
7	23	9	6	3	1	75	10	1	151	6	3	689.16	49	14
7	23	9	6	3	1	75	10	1	152	6	8	9.03	49	1
7	23	9	6	3	1	75	10	1	152	6	8	613.47	49	13
7	23	9	6	3	1	75	10	1	153	6	7	715.15	49	15
7	23	9	6	3	1	75	10	1	154	6	9	8.88	49	1
7	23	9	6	3	1	75	10	1	154	6	9	759.7	49	16
7	23	9	6	3	1	75	10	1	155	6	4	8.83	49	1
7	23	9	6	3	1	75	10	1	155	6	4	707.58	49	15
7	23	9	6	3	1	75	10	1	156	6	2	11.33	49	1
7	23	9	6	3	1	75	10	1	156	6	2	757.56	49	16
7	23	9	6	3	1	75	10	1	157	6	10	7.99	49	1
7	23	9	6	3	1	75	10	1	157	6	10	724.17	49	15
7	23	9	6	3	1	75	10	1	158	6	5	8.8	49	1
7	23	9	6	3	1	75	10	1	159	6	1	9.56	49	1
7	23	9	6	3	1	75	10	1	159	6	1	783.93	49	16
7	23	9	6	3	1	75	10	1	160	6	3	10.53	49	1
7	23	9	6	3	1	75	10	1	160	6	3	691.45	49	14
7	23	9	6	3	1	75	10	1	161	16	4	10.82	49	1
7	23	9	6	3	1	75	10	1	162	6	6	735.71	49	15
7	23	9	6	3	1	75	10	1	163	16	8	11.43	49	1
7	23	9	6	3	1	75	10	1	164	6	8	759.6	49	16
7	23	9	6	3	1	75	10	1	165	6	6	10.69	49	1
7	23	9	6	3	1	75	10	1	166	16	7	138.47	49	3
7	23	9	6	3	1	75	10	1	167	6	4	545.32	49	11
7	23	9	6	3	1	75	10	1	168	6	5	662.05	49	14
7	23	9	6	3	1	75	10	1	169	6	10	0	-1	16
7	23	9	6	3	1	75	10	1	170	6	9	79.29	49	2
7	23	9	6	3	1	75	10	1	171	6	7	57.65	49	2
7	23	9	6	3	1	75	10	1	172	16	5	115.42	49	3
7	23	9	6	3	1	75	10	1	173	6	2	682.35	49	14
7	23	9	6	3	1	75	10	1	174	16	2	17.78	49	1
7	23	9	6	3	1	75	10	1	175	6	1	621.57	49	13
7	23	9	6	3	1	75	10	1	176	6	8	667.74	49	14
7	23	9	6	3	1	75	10	1	177	6	3	0	-1	16
7	23	9	6	3	1	75	10	1	178	6	5	20.01	49	1
7	23	9	6	3	1	75	10	1	178	6	5	685.78	49	14
7	23	9	6	3	1	75	10	1	179	6	4	8.62	49	1
7	23	9	6	3	1	75	10	1	179	6	4	624.67	49	13
7	23	9	6	3	1	75	10	1	180	6	2	779.48	49	16
7	23	9	6	3	1	75	10	1	181	6	10	8.37	49	1
7	23	9	6	3	1	75	10	1	182	6	9	126.65	49	3
7	23	9	6	3	1	75	10	1	183	6	6	129.62	49	3
7	23	9	6	3	1	75	10	1	184	16	9	65.58	49	2
7	23	9	6	3	1	75	10	1	185	16	1	714.93	49	15
7	23	9	6	3	1	75	10	1	186	6	8	10.56	49	1
7	23	9	6	3	1	75	10	1	187	6	7	19.89	49	1
7	23	9	6	3	1	75	10	1	188	6	3	10.65	49	1
7	23	9	6	3	1	75	10	1	188	6	3	727.12	49	15
7	23	9	6	3	1	75	10	1	189	6	1	8.71	49	1
7	23	9	6	3	1	75	10	1	190	6	6	10.81	49	1
7	23	9	6	3	1	75	10	1	190	6	6	679.33	49	14
7	23	9	6	3	1	75	10	1	191	16	3	7.59	49	1
7	23	9	6	3	1	75	10	1	192	6	4	607.34	49	13
7	23	9	6	3	1	75	10	1	193	6	1	757.35	49	16
7	23	9	6	3	1	75	10	1	194	6	2	10.01	49	1
7	23	9	6	3	1	75	10	1	194	6	2	743.14	49	15
7	23	9	6	3	1	75	10	1	195	16	6	10.33	49	1
7	23	9	6	3	1	75	10	1	196	6	5	591.74	49	12
7	23	9	6	3	1	75	10	1	197	6	9	759.41	49	16
7	23	9	6	3	1	75	10	1	198	16	8	10.37	49	1
7	23	9	6	3	1	75	10	1	199	16	10	0	-1	16
7	23	9	6	3	1	75	10	1	200	6	10	658.19	49	14
7	23	9	6	3	1	75	10	1	201	6	7	0	-1	16
7	23	9	6	3	1	75	10	1	202	6	8	131.73	49	3
7	23	9	6	3	1	75	10	1	203	16	2	77.71	49	2
7	23	9	6	3	1	75	10	1	204	6	3	0	-1	16
7	23	9	6	3	1	75	10	1	205	16	7	79.21	49	2
7	23	9	6	3	1	75	10	1	206	6	7	616.58	49	13
7	23	9	6	3	1	75	10	1	207	6	1	0	-1	16
7	23	9	6	3	1	75	10	1	208	6	5	93.25	49	2
7	23	9	6	3	1	75	10	1	208	6	5	609.91	49	13
7	23	9	6	3	1	75	10	1	209	16	1	0	-1	16
7	23	9	6	3	1	75	10	1	210	6	10	779.1	49	16
7	23	9	6	3	1	75	10	1	211	6	4	9	49	1
7	23	9	6	3	1	75	10	1	211	6	4	670.41	49	14
7	23	9	6	3	1	75	10	1	212	16	4	8.41	49	1
7	23	9	6	3	1	75	10	1	213	6	2	692.75	49	14
7	23	9	6	3	1	75	10	1	214	6	9	8.63	49	1
7	23	9	6	3	1	75	10	1	214	6	9	737.72	49	15
7	23	9	6	3	1	75	10	1	215	16	5	8.47	49	1
7	23	9	6	3	1	75	10	1	216	6	3	757.58	49	16
7	23	9	6	3	1	75	10	1	217	6	6	10.78	49	1
7	23	9	6	3	1	75	10	1	217	6	6	784.71	49	16
7	23	9	6	3	1	75	10	1	218	6	8	11.22	49	1
7	23	9	6	3	1	75	10	1	218	6	8	769.57	49	16
7	23	9	6	3	1	75	10	1	219	6	6	13.18	49	1
7	23	9	6	3	1	75	10	1	219	6	6	788.58	49	16
7	23	9	6	3	1	75	10	1	220	6	4	11.83	49	1
7	23	9	6	3	1	75	10	1	220	6	4	765.97	49	16
7	23	9	6	3	1	75	10	1	221	16	9	10.88	49	1
7	23	9	6	3	1	75	10	1	222	6	9	723.64	49	15
7	23	9	6	3	1	75	10	1	223	6	10	9.46	49	1
7	23	9	6	3	1	75	10	1	224	6	1	8.82	49	1
7	23	9	6	3	1	75	10	1	225	16	3	60.38	49	2
7	23	9	6	3	1	75	10	1	226	6	2	648.1	49	13
7	23	9	6	3	1	75	10	1	227	6	7	0	-1	16
7	23	9	6	3	1	75	10	1	228	6	5	40.74	49	1
7	23	9	6	3	1	75	10	1	229	6	8	25.09	49	1
7	23	9	6	3	1	75	10	1	229	6	8	728.19	49	15
7	23	9	6	3	1	75	10	1	230	6	3	10.19	49	1
7	23	9	6	3	1	75	10	1	230	6	3	636.03	49	13
7	23	9	6	3	1	75	10	1	231	6	6	760.08	49	16
7	23	9	6	3	1	75	10	1	232	16	6	13.51	49	1
7	23	9	6	3	1	75	10	1	233	16	7	0	-1	16
7	23	9	6	3	1	75	10	1	234	6	5	589.28	49	12
7	23	9	6	3	1	75	10	1	235	6	7	727.5	49	15
7	23	9	6	3	1	75	10	1	236	16	8	8.96	49	1
7	23	9	6	3	1	75	10	1	237	6	1	729.02	49	15
7	23	9	6	3	1	75	10	1	238	6	2	10.56	49	1
7	23	9	6	3	1	75	10	1	239	6	8	40.24	49	1
7	23	9	6	3	1	75	10	1	239	6	8	618.49	49	13
7	23	9	6	3	1	75	10	1	240	6	4	665.33	49	14
7	23	9	6	3	1	75	10	1	241	6	9	10.13	49	1
7	23	9	6	3	1	75	10	1	241	6	9	659.12	49	14
7	23	9	6	3	1	75	10	1	242	6	10	10.58	49	1
7	23	9	6	3	1	75	10	1	243	6	3	40.74	49	1
7	23	9	6	3	1	75	10	1	243	6	3	662.03	49	14
7	23	9	6	3	1	75	10	1	244	16	5	0	-1	16
7	23	9	6	3	1	75	10	1	245	6	7	674.75	49	14
7	23	9	6	3	1	75	10	1	246	6	10	8.84	49	1
7	23	9	6	3	1	75	10	1	247	6	4	10.31	49	1
7	23	9	6	3	1	75	10	1	247	6	4	720.25	49	15
7	23	9	6	3	1	75	10	1	248	6	2	9.31	49	1
7	23	9	6	3	1	75	10	1	249	6	5	131.61	49	3
7	23	9	6	3	1	75	10	1	249	6	5	626.77	49	13
7	23	9	6	3	1	75	10	1	250	16	2	0	-1	16
7	23	9	6	3	1	75	10	1	251	16	1	771.47	49	16
7	23	9	6	3	1	75	10	1	252	6	1	12.9	49	1
7	23	9	6	3	1	75	10	1	252	6	1	711.2	49	15
7	23	9	6	3	1	75	10	1	253	16	4	10.43	49	1
7	23	9	6	3	1	75	10	1	254	6	9	0	-1	16
7	23	9	6	3	1	75	10	1	255	6	6	10.05	49	1
7	23	9	6	3	1	75	10	1	256	6	3	62.13	49	2
7	23	9	6	3	1	75	10	1	256	6	3	666.28	49	14
7	23	9	6	3	1	75	10	1	257	6	8	661.43	49	14
7	23	9	6	3	1	75	10	1	258	6	6	0	-1	16
7	23	9	6	3	1	75	10	1	259	6	2	73.37	49	2
7	23	9	6	3	1	75	10	1	260	6	7	407.24	49	9
7	23	9	6	3	1	75	10	1	261	16	9	66.95	49	2
7	23	9	6	3	1	75	10	1	262	6	8	685.09	49	14
7	23	9	6	3	1	75	10	1	263	6	5	10.4	49	1
7	23	9	6	3	1	75	10	1	263	6	5	710.59	49	15
7	23	9	6	3	1	75	10	1	264	6	9	10.31	49	1
7	23	9	6	3	1	75	10	1	264	6	9	782.13	49	16
7	23	9	6	3	1	75	10	1	265	16	10	12.89	49	1
7	23	9	6	3	1	75	10	1	266	6	1	27.9	49	1
7	23	9	6	3	1	75	10	1	266	6	1	662.25	49	14
7	23	9	6	3	1	75	10	1	267	6	4	726.57	49	15
7	23	9	6	3	1	75	10	1	268	6	10	8.85	49	1
7	23	9	6	3	1	75	10	1	269	16	3	160.5	49	4
7	23	9	6	3	1	75	10	1	270	6	3	623.45	49	13
7	23	9	6	3	1	75	10	1	271	16	7	0	-1	16
7	23	9	6	3	1	75	10	1	272	6	6	612.92	49	13
7	23	9	6	3	1	75	10	1	273	16	1	0	-1	16
7	23	9	6	3	1	75	10	1	274	6	8	736.81	49	15
7	23	9	6	3	1	75	10	1	275	6	4	8.49	49	1
7	23	9	6	3	1	75	10	1	276	16	10	10.4	49	1
7	23	9	6	3	1	75	10	1	277	6	10	742.93	49	15
7	23	9	6	3	1	75	10	1	278	6	2	10.9	49	1
7	23	9	6	3	1	75	10	1	279	6	9	712.15	49	15
7	23	9	6	3	1	75	10	1	280	6	1	11.31	49	1
7	23	9	6	3	1	75	10	1	280	6	1	676.77	49	14
7	23	9	6	3	1	75	10	1	281	6	5	7.84	49	1
7	23	9	6	3	1	75	10	1	281	6	5	759.86	49	16
7	23	9	6	3	1	75	10	1	282	6	7	9.04	49	1
7	23	9	6	3	1	75	10	1	282	6	7	721.4	49	15
7	23	9	6	3	1	75	10	1	283	6	3	8.1	49	1
7	23	9	6	3	1	75	10	1	283	6	3	732.11	49	15
7	23	9	6	3	1	75	10	1	284	6	2	10.44	49	1
7	23	9	6	3	1	75	10	1	285	6	10	9.57	49	1
7	23	9	6	3	1	75	10	1	286	6	9	93.53	49	2
7	23	9	6	3	1	75	10	1	287	6	8	675.02	49	14
7	23	9	6	3	1	75	10	1	288	16	9	592.51	49	12
7	23	9	6	3	1	75	10	1	289	6	5	679.62	49	14
7	23	9	6	3	1	75	10	1	290	6	1	0	-1	16
7	23	9	6	3	1	75	10	1	291	6	7	61.53	49	2
7	23	9	6	3	1	75	10	1	291	6	7	709.83	49	15
7	23	9	6	3	1	75	10	1	292	16	2	9.08	49	1
7	23	9	6	3	1	75	10	1	293	6	3	760.92	49	16
7	23	9	6	3	1	75	10	1	294	6	6	8.35	49	1
7	23	9	6	3	1	75	10	1	294	6	6	684.46	49	14
7	23	9	6	3	1	75	10	1	295	6	4	8.41	49	1
7	23	9	6	3	1	75	10	1	295	6	4	669.64	49	14
7	23	9	6	3	1	75	10	1	296	16	5	0	-1	16
7	23	9	6	3	1	75	10	1	297	16	4	0	-1	16
7	23	9	6	3	1	75	10	1	298	6	2	688.02	49	14
7	23	9	6	3	1	75	10	1	299	6	9	11.02	49	1
7	23	9	6	3	1	75	10	1	300	6	10	62.09	49	2
7	23	9	6	3	1	75	10	1	300	6	10	673.35	49	14
7	23	9	6	3	1	75	10	1	301	16	6	0	-1	16
7	23	9	6	3	1	75	10	1	302	6	1	711.99	49	15
7	23	9	6	3	1	75	10	1	303	6	8	10.2	49	1
7	23	9	6	3	1	75	10	1	304	16	3	37.3	49	1
7	23	9	6	3	1	75	10	1	305	6	6	679.37	49	14
7	23	9	6	3	1	75	10	1	306	16	8	10.57	49	1
7	23	9	6	3	1	75	10	1	307	6	7	0	-1	16
7	23	9	6	3	1	75	10	1	308	6	3	8.29	49	1
7	23	9	6	3	1	75	10	1	309	16	7	81.2	49	2
7	23	9	6	3	1	75	10	1	310	16	1	0	-1	16
7	23	9	6	3	1	75	10	1	311	6	5	677.96	49	14
7	23	9	6	3	1	75	10	1	312	6	4	10.63	49	1
7	23	9	6	3	1	75	10	1	312	6	4	669.17	49	14
7	23	9	6	3	1	75	10	1	313	6	7	10.76	49	1
7	23	9	6	3	1	75	10	1	314	16	9	85.39	49	2
7	23	9	6	3	1	75	10	1	315	6	9	681.31	49	14
7	23	9	6	3	1	75	10	1	316	16	4	9.54	49	1
7	23	9	6	3	1	75	10	1	317	6	2	738.66	49	15
7	23	9	6	3	1	75	10	1	318	6	4	8.43	49	1
7	23	9	6	3	1	75	10	1	318	6	4	727.87	49	15
7	23	9	6	3	1	75	10	1	319	16	5	8.07	49	1
7	23	9	6	3	1	75	10	1	320	6	5	587.14	49	12
7	23	9	6	3	1	75	10	1	321	6	1	721.97	49	15
7	23	9	6	3	1	75	10	1	322	6	10	7.88	49	1
7	23	9	6	3	1	75	10	1	323	16	10	116.11	49	3
7	23	9	6	3	1	75	10	1	324	16	2	0	-1	16
7	23	9	6	3	1	75	10	1	325	6	6	779.95	49	16
7	23	9	6	3	1	75	10	1	326	6	3	9.62	49	1
7	23	9	6	3	1	75	10	1	326	6	3	708.39	49	15
7	23	9	6	3	1	75	10	1	327	6	8	8.19	49	1
7	23	9	6	3	1	75	10	1	327	6	8	736.76	49	15
7	23	9	6	3	1	75	10	1	328	6	5	8.07	49	1
7	23	9	6	3	1	75	10	1	328	6	5	617.92	49	13
7	23	9	6	3	1	75	10	1	329	6	10	693.27	49	14
7	23	9	6	3	1	75	10	1	330	6	4	10.32	49	1
7	23	9	6	3	1	75	10	1	330	6	4	682.61	49	14
7	23	9	6	3	1	75	10	1	331	6	9	7.79	49	1
7	23	9	6	3	1	75	10	1	331	6	9	679.6	49	14
7	23	9	6	3	1	75	10	1	332	6	2	8.32	49	1
7	23	9	6	3	1	75	10	1	333	6	8	10.64	49	1
7	23	9	6	3	1	75	10	1	334	6	7	61.68	49	2
7	23	9	6	3	1	75	10	1	334	6	7	718.69	49	15
7	23	9	6	3	1	75	10	1	335	6	3	11.34	49	1
7	23	9	6	3	1	75	10	1	335	6	3	711.18	49	15
7	23	9	6	3	1	75	10	1	336	6	6	10.2	49	1
7	23	9	6	3	1	75	10	1	336	6	6	669.67	49	14
7	23	9	6	3	1	75	10	1	337	6	1	787.62	49	16
7	23	9	6	3	1	75	10	1	338	6	7	9.58	49	1
7	23	9	6	3	1	75	10	1	338	6	7	745.96	49	15
7	23	9	6	3	1	75	10	1	339	6	9	8.64	49	1
7	23	9	6	3	1	75	10	1	340	6	4	32.37	49	1
7	23	9	6	3	1	75	10	1	340	6	4	657.65	49	14
7	23	9	6	3	1	75	10	1	341	6	10	637.81	49	13
7	23	9	6	3	1	75	10	1	342	6	5	707.07	49	15
7	23	9	6	3	1	75	10	1	343	16	6	13.63	49	1
7	23	9	6	3	1	75	10	1	344	16	3	0	-1	16
7	23	9	6	3	1	75	10	1	345	16	8	0	-1	16
7	23	9	6	3	1	75	10	1	346	6	2	0	-1	16
7	23	9	6	3	1	75	10	1	347	16	2	85.15	49	2
7	23	9	6	3	1	75	10	1	348	6	1	660.21	49	14
7	23	9	6	3	1	75	10	1	349	6	3	677.24	49	14
7	23	9	6	3	1	75	10	1	350	6	6	8.51	49	1
7	23	9	6	3	1	75	10	1	350	6	6	678.61	49	14
7	23	9	6	3	1	75	10	1	351	6	8	8.35	49	1
7	23	9	6	3	1	75	10	1	351	6	8	762.35	49	16
7	23	9	6	3	1	75	10	1	352	6	2	8.19	49	1
7	23	9	6	3	1	75	10	1	352	6	2	707.87	49	15
7	23	9	6	3	1	75	10	1	353	6	9	8.26	49	1
7	23	9	6	3	1	75	10	1	353	6	9	684.39	49	14
7	23	9	6	3	1	75	10	1	354	6	10	8.39	49	1
7	23	9	6	3	1	75	10	1	354	6	10	745.54	49	15
7	23	9	6	3	1	75	10	1	355	6	7	8.54	49	1
7	23	9	6	3	1	75	10	1	356	16	9	25.77	49	1
7	23	9	6	3	1	75	10	1	357	6	1	661.58	49	14
7	23	9	6	3	1	75	10	1	358	6	6	13.02	49	1
7	23	9	6	3	1	75	10	1	358	6	6	761.01	49	16
7	23	9	6	3	1	75	10	1	359	6	5	12.74	49	1
7	23	9	6	3	1	75	10	1	360	6	8	12.35	49	1
7	23	9	6	3	1	75	10	1	360	6	8	717.61	49	15
7	23	9	6	3	1	75	10	1	361	6	3	10.73	49	1
7	23	9	6	3	1	75	10	1	362	6	4	78.94	49	2
7	23	9	6	3	1	75	10	1	362	6	4	657.85	49	14
7	23	9	6	3	1	75	10	1	363	6	5	672.54	49	14
7	23	9	6	3	1	75	10	1	364	6	2	7.61	49	1
7	23	9	6	3	1	75	10	1	364	6	2	768.36	49	16
7	23	9	6	3	1	75	10	1	365	16	10	8.18	49	1
7	23	9	6	3	1	75	10	1	366	6	10	779.79	49	16
7	23	9	6	3	1	75	10	1	367	6	9	8.18	49	1
7	23	9	6	3	1	75	10	1	367	6	9	758.96	49	16
7	23	9	6	3	1	75	10	1	368	6	4	8.13	49	1
7	23	9	6	3	1	75	10	1	368	6	4	658.49	49	14
7	23	9	6	3	1	75	10	1	369	6	3	735.42	49	15
7	23	9	6	3	1	75	10	1	370	6	8	10.37	49	1
7	23	9	6	3	1	75	10	1	370	6	8	791.81	49	16
7	23	9	6	3	1	75	10	1	371	6	7	11.14	49	1
7	23	9	6	3	1	75	10	1	372	6	6	21.41	49	1
7	23	9	6	3	1	75	10	1	372	6	6	730.74	49	15
7	23	9	6	3	1	75	10	1	373	6	1	9.53	49	1
7	23	9	6	3	1	75	10	1	374	6	2	75.32	49	2
7	23	9	6	3	1	75	10	1	374	6	2	759.88	49	16
7	23	9	6	3	1	75	10	1	375	6	10	9.19	49	1
7	23	9	6	3	1	75	10	1	375	6	10	714.13	49	15
7	23	9	6	3	1	75	10	1	376	6	9	7.85	49	1
7	23	9	6	3	1	75	10	1	377	6	7	17.24	49	1
7	23	9	6	3	1	75	10	1	378	16	7	123.76	49	3
7	23	9	6	3	1	75	10	1	379	16	3	0	-1	16
7	23	9	6	3	1	75	10	1	380	16	5	0	-1	16
7	23	9	6	3	1	75	10	1	381	6	5	709.69	49	15
7	23	9	6	3	1	75	10	1	382	16	6	10.17	49	1
7	23	9	6	3	1	75	10	1	382	16	6	662.98	49	14
7	23	9	6	3	1	75	10	1	383	6	8	661.95	49	14
7	23	9	6	3	1	75	10	1	384	6	1	709.73	49	15
7	23	9	6	3	1	75	10	1	385	6	6	9.28	49	1
7	23	9	6	3	1	75	10	1	385	6	6	736.73	49	15
7	23	9	6	3	1	75	10	1	386	6	3	8.1	49	1
7	23	9	6	3	1	75	10	1	386	6	3	634.72	49	13
7	23	9	6	3	1	75	10	1	387	16	8	758.16	49	16
7	23	9	6	3	1	75	10	1	388	6	4	7.88	49	1
7	23	9	6	3	1	75	10	1	388	6	4	697.11	49	14
7	23	9	6	3	1	75	10	1	389	6	7	8.12	49	1
7	23	9	6	3	1	75	10	1	389	6	7	674.85	49	14
7	23	9	6	3	1	75	10	1	390	6	1	757.91	49	16
7	23	9	6	3	1	75	10	1	391	6	2	10.28	49	1
7	23	9	6	3	1	75	10	1	392	6	5	126	49	3
7	23	9	6	3	1	75	10	1	393	16	1	182.92	49	4
7	23	9	6	3	1	75	10	1	394	6	10	683.96	49	14
7	23	9	6	3	1	75	10	1	395	16	4	10.55	49	1
7	23	9	6	3	1	75	10	1	396	6	4	773.44	49	16
7	23	9	6	3	1	75	10	1	397	6	9	10.05	49	1
7	23	9	6	3	1	75	10	1	398	6	6	212.18	49	5
7	23	9	6	3	1	75	10	1	399	6	3	90.79	49	2
7	23	9	6	3	1	75	10	1	399	6	3	733.31	49	15
7	23	9	6	3	1	75	10	1	400	6	8	10.09	49	1
7	23	9	6	3	1	75	10	1	400	6	8	731.38	49	15
7	23	9	6	3	1	75	10	1	401	16	5	8.6	49	1
7	23	9	6	3	1	75	10	1	402	6	6	707.56	49	15
7	23	9	6	3	1	75	10	1	403	16	9	8.1	49	1
7	23	9	6	3	1	75	10	1	404	6	10	608.94	49	13
7	23	9	6	3	1	75	10	1	405	6	9	610.66	49	13
7	23	9	6	3	1	75	10	1	406	16	2	0	-1	16
7	23	9	6	3	1	75	10	1	407	16	10	0	-1	16
7	23	9	6	3	1	75	10	1	408	6	5	0	-1	16
7	23	9	6	3	1	75	10	1	409	16	4	59.4	49	2
7	23	9	6	3	1	75	10	1	409	16	4	511.1	49	11
7	23	9	6	3	1	75	10	1	410	16	6	0	-1	16
7	23	9	6	3	1	75	10	1	411	6	7	736.8	49	15
7	23	9	6	3	1	75	10	1	412	16	7	9.08	49	1
7	23	9	6	3	1	75	10	1	413	6	4	657.64	49	14
7	23	9	6	3	1	75	10	1	414	16	8	8.19	49	1
7	23	9	6	3	1	75	10	1	415	6	2	685.84	49	14
7	23	9	6	3	1	75	10	1	416	6	1	8.04	49	1
7	23	9	6	3	1	75	10	1	417	6	8	8.93	49	1
7	23	9	6	3	1	75	10	1	417	6	8	742.76	49	15
7	23	9	6	3	1	75	10	1	418	6	3	10.4	49	1
7	23	9	6	3	1	75	10	1	418	6	3	716.29	49	15
7	23	9	6	3	1	75	10	1	419	6	2	12.33	49	1
7	23	9	6	3	1	75	10	1	419	6	2	718.84	49	15
7	23	9	6	3	1	75	10	1	420	6	10	10.79	49	1
7	23	9	6	3	1	75	10	1	420	6	10	691.79	49	14
7	23	9	6	3	1	75	10	1	421	16	3	10.21	49	1
7	23	9	6	3	1	75	10	1	422	6	9	658.87	49	14
7	23	9	6	3	1	75	10	1	423	16	1	0	-1	16
7	23	9	6	3	1	75	10	1	424	6	7	712.56	49	15
7	23	9	6	3	1	75	10	1	425	6	6	8.1	49	1
7	23	9	6	3	1	75	10	1	426	16	6	212.58	49	5
7	23	9	6	3	1	75	10	1	427	6	5	538.56	49	11
7	23	9	6	3	1	75	10	1	428	16	7	0	-1	16
7	23	9	6	3	1	75	10	1	429	6	8	628.99	49	13
7	23	9	6	3	1	75	10	1	430	6	1	660.78	49	14
7	23	9	6	3	1	75	10	1	431	16	1	10.04	49	1
7	23	9	6	3	1	75	10	1	432	6	3	627.12	49	13
7	23	9	6	3	1	75	10	1	433	6	4	638.38	49	13
7	23	9	6	3	1	75	10	1	434	6	6	658.6	49	14
7	23	9	6	3	1	75	10	1	435	6	1	786.19	49	16
7	23	9	6	3	1	75	10	1	436	6	4	7.56	49	1
7	23	9	6	3	1	75	10	1	436	6	4	709.22	49	15
7	23	9	6	3	1	75	10	1	437	6	10	8.21	49	1
7	23	9	6	3	1	75	10	1	437	6	10	663.64	49	14
7	23	9	6	3	1	75	10	1	438	6	5	660.46	49	14
7	23	9	6	3	1	75	10	1	439	16	10	0	-1	16
7	23	9	6	3	1	75	10	1	440	6	7	645.29	49	13
7	23	9	6	3	1	75	10	1	441	6	2	0	-1	16
7	23	9	6	3	1	75	10	1	442	6	9	65.34	49	2
7	23	9	6	3	1	75	10	1	442	6	9	692.29	49	14
7	23	9	6	3	1	75	10	1	443	6	8	633.8	49	13
7	23	9	6	3	1	75	10	1	444	6	3	674.84	49	14
7	23	9	6	3	1	75	10	1	445	6	5	10.94	49	1
7	23	9	6	3	1	75	10	1	445	6	5	687.04	49	14
7	23	9	6	3	1	75	10	1	446	6	4	10.35	49	1
7	23	9	6	3	1	75	10	1	446	6	4	624.09	49	13
7	23	9	6	3	1	75	10	1	447	6	9	765.77	49	16
7	23	9	6	3	1	75	10	1	448	6	2	8.01	49	1
7	23	9	6	3	1	75	10	1	449	6	10	27.64	49	1
7	23	9	6	3	1	75	10	1	449	6	10	620.46	49	13
7	23	9	6	3	1	75	10	1	450	6	8	739.91	49	15
