SubjectNum	Age	Gender	PressedTask	Block Type	Block Repeat Num	Response Rate	Onset	Block	Trial	ImgType	ImgNum	RT	PressedC	FrameC
7	23	9	6	3	1	75	10	1	1	6	5	771.31	49	15
7	23	9	6	3	1	75	10	1	2	6	10	13.8	49	1
7	23	9	6	3	1	75	10	1	2	6	10	612.75	49	13
7	23	9	6	3	1	75	10	1	3	6	4	673.33	49	14
7	23	9	6	3	1	75	10	1	4	6	9	7.85	49	1
7	23	9	6	3	1	75	10	1	4	6	9	778.55	49	16
7	23	9	6	3	1	75	10	1	5	16	7	10.8	49	1
7	23	9	6	3	1	75	10	1	6	6	2	663.55	49	14
7	23	9	6	3	1	75	10	1	7	6	3	7.64	49	1
7	23	9	6	3	1	75	10	1	7	6	3	743.21	49	15
7	23	9	6	3	1	75	10	1	8	16	9	9.21	49	1
7	23	9	6	3	1	75	10	1	9	6	8	607.92	49	13
7	23	9	6	3	1	75	10	1	10	16	2	0	-1	16
7	23	9	6	3	1	75	10	1	11	6	7	643.68	49	13
7	23	9	6	3	1	75	10	1	12	6	6	710.37	49	15
7	23	9	6	3	1	75	10	1	13	6	1	11.11	49	1
7	23	9	6	3	1	75	10	1	13	6	1	763.61	49	16
7	23	9	6	3	1	75	10	1	14	16	5	9.42	49	1
7	23	9	6	3	1	75	10	1	15	6	5	611	49	13
7	23	9	6	3	1	75	10	1	16	6	2	688.26	49	14
7	23	9	6	3	1	75	10	1	17	6	4	7.76	49	1
7	23	9	6	3	1	75	10	1	17	6	4	718.31	49	15
7	23	9	6	3	1	75	10	1	18	6	9	7.55	49	1
7	23	9	6	3	1	75	10	1	18	6	9	667.51	49	14
7	23	9	6	3	1	75	10	1	19	6	10	10.66	49	1
7	23	9	6	3	1	75	10	1	19	6	10	692.1	49	14
7	23	9	6	3	1	75	10	1	20	16	1	10.4	49	1
7	23	9	6	3	1	75	10	1	21	6	3	607.39	49	13
7	23	9	6	3	1	75	10	1	22	16	10	774.24	49	16
7	23	9	6	3	1	75	10	1	23	6	7	12.84	49	1
7	23	9	6	3	1	75	10	1	24	16	4	262.48	49	6
7	23	9	6	3	1	75	10	1	25	6	8	622.26	49	13
7	23	9	6	3	1	75	10	1	26	16	3	0	-1	16
7	23	9	6	3	1	75	10	1	27	6	6	543.84	49	11
7	23	9	6	3	1	75	10	1	28	6	1	0	-1	16
7	23	9	6	3	1	75	10	1	29	6	6	38.73	49	1
7	23	9	6	3	1	75	10	1	29	6	6	783.43	49	16
7	23	9	6	3	1	75	10	1	30	6	1	8.14	49	1
7	23	9	6	3	1	75	10	1	30	6	1	691.52	49	14
7	23	9	6	3	1	75	10	1	31	16	6	7.79	49	1
7	23	9	6	3	1	75	10	1	32	6	9	559.23	49	12
7	23	9	6	3	1	75	10	1	33	6	8	688.36	49	14
7	23	9	6	3	1	75	10	1	34	6	10	8.04	49	1
7	23	9	6	3	1	75	10	1	34	6	10	683.51	49	14
7	23	9	6	3	1	75	10	1	35	16	8	10.51	49	1
7	23	9	6	3	1	75	10	1	36	6	7	642.69	49	13
7	23	9	6	3	1	75	10	1	37	6	4	671.27	49	14
7	23	9	6	3	1	75	10	1	38	6	2	11.4	49	1
7	23	9	6	3	1	75	10	1	38	6	2	718.08	49	15
7	23	9	6	3	1	75	10	1	39	6	5	9.92	49	1
7	23	9	6	3	1	75	10	1	39	6	5	688.43	49	14
7	23	9	6	3	1	75	10	1	40	16	7	9.44	49	1
7	23	9	6	3	1	75	10	1	41	16	4	607.65	49	13
7	23	9	6	3	1	75	10	1	42	6	3	688.73	49	14
7	23	9	6	3	1	75	10	1	43	6	7	10.39	49	1
7	23	9	6	3	1	75	10	1	44	6	5	121.38	49	3
7	23	9	6	3	1	75	10	1	44	6	5	689.18	49	14
7	23	9	6	3	1	75	10	1	45	6	2	8.01	49	1
7	23	9	6	3	1	75	10	1	45	6	2	664.61	49	14
7	23	9	6	3	1	75	10	1	46	6	1	0	-1	16
7	23	9	6	3	1	75	10	1	47	6	9	14.92	49	1
7	23	9	6	3	1	75	10	1	47	6	9	761.34	49	16
7	23	9	6	3	1	75	10	1	48	6	4	10.3	49	1
7	23	9	6	3	1	75	10	1	48	6	4	761.12	49	16
7	23	9	6	3	1	75	10	1	49	16	5	10.62	49	1
7	23	9	6	3	1	75	10	1	50	16	1	0	-1	16
7	23	9	6	3	1	75	10	1	51	6	10	0	-1	16
7	23	9	6	3	1	75	10	1	52	6	6	15.91	49	1
7	23	9	6	3	1	75	10	1	52	6	6	693.8	49	14
7	23	9	6	3	1	75	10	1	53	6	3	8.45	49	1
7	23	9	6	3	1	75	10	1	53	6	3	710.93	49	15
7	23	9	6	3	1	75	10	1	54	6	8	7.77	49	1
7	23	9	6	3	1	75	10	1	54	6	8	775.3	49	16
7	23	9	6	3	1	75	10	1	55	16	2	8.66	49	1
7	23	9	6	3	1	75	10	1	56	6	2	674.9	49	14
7	23	9	6	3	1	75	10	1	57	6	10	8.07	49	1
7	23	9	6	3	1	75	10	1	57	6	10	571.68	49	12
7	23	9	6	3	1	75	10	1	58	6	9	645	49	13
7	23	9	6	3	1	75	10	1	59	16	10	7.82	49	1
7	23	9	6	3	1	75	10	1	59	16	10	717.75	49	15
7	23	9	6	3	1	75	10	1	60	6	1	12.91	49	1
7	23	9	6	3	1	75	10	1	60	6	1	746.07	49	15
7	23	9	6	3	1	75	10	1	61	6	8	10.36	49	1
7	23	9	6	3	1	75	10	1	61	6	8	723.71	49	15
7	23	9	6	3	1	75	10	1	62	6	3	10.18	49	1
7	23	9	6	3	1	75	10	1	62	6	3	688.94	49	14
7	23	9	6	3	1	75	10	1	63	6	6	10.17	49	1
7	23	9	6	3	1	75	10	1	64	6	5	9.16	49	1
7	23	9	6	3	1	75	10	1	64	6	5	721.45	49	15
7	23	9	6	3	1	75	10	1	65	6	7	10.3	49	1
7	23	9	6	3	1	75	10	1	66	6	4	57.89	49	2
7	23	9	6	3	1	75	10	1	66	6	4	670.65	49	14
7	23	9	6	3	1	75	10	1	67	6	7	7.7	49	1
7	23	9	6	3	1	75	10	1	67	6	7	717.8	49	15
7	23	9	6	3	1	75	10	1	68	6	4	7.85	49	1
7	23	9	6	3	1	75	10	1	68	6	4	673.61	49	14
7	23	9	6	3	1	75	10	1	69	6	10	7.44	49	1
7	23	9	6	3	1	75	10	1	69	6	10	758.88	49	16
7	23	9	6	3	1	75	10	1	70	6	2	10.34	49	1
7	23	9	6	3	1	75	10	1	71	6	1	136.08	49	3
7	23	9	6	3	1	75	10	1	71	6	1	658.59	49	14
7	23	9	6	3	1	75	10	1	72	6	9	10.07	49	1
7	23	9	6	3	1	75	10	1	72	6	9	609.9	49	13
7	23	9	6	3	1	75	10	1	73	6	5	773.72	49	16
7	23	9	6	3	1	75	10	1	74	6	6	10.07	49	1
7	23	9	6	3	1	75	10	1	74	6	6	710.38	49	15
7	23	9	6	3	1	75	10	1	75	6	3	10.18	49	1
7	23	9	6	3	1	75	10	1	75	6	3	621.5	49	13
7	23	9	6	3	1	75	10	1	76	6	8	0	-1	16
7	23	9	6	3	1	75	10	1	77	6	5	108.01	49	3
7	23	9	6	3	1	75	10	1	77	6	5	632.77	49	13
7	23	9	6	3	1	75	10	1	78	16	9	0	-1	16
7	23	9	6	3	1	75	10	1	79	16	6	0	-1	16
7	23	9	6	3	1	75	10	1	80	16	3	0	-1	16
7	23	9	6	3	1	75	10	1	81	16	8	0	-1	16
7	23	9	6	3	1	75	10	1	82	6	4	673.02	49	14
7	23	9	6	3	1	75	10	1	83	16	7	7.93	49	1
7	23	9	6	3	1	75	10	1	84	6	10	634.55	49	13
7	23	9	6	3	1	75	10	1	85	6	2	0	-1	16
7	23	9	6	3	1	75	10	1	86	6	9	112.01	49	3
7	23	9	6	3	1	75	10	1	86	6	9	793.29	49	16
7	23	9	6	3	1	75	10	1	87	6	7	10.57	49	1
7	23	9	6	3	1	75	10	1	88	6	8	12.84	49	1
7	23	9	6	3	1	75	10	1	89	6	6	9.08	49	1
7	23	9	6	3	1	75	10	1	89	6	6	761.8	49	16
7	23	9	6	3	1	75	10	1	90	6	3	8.02	49	1
7	23	9	6	3	1	75	10	1	90	6	3	625.63	49	13
7	23	9	6	3	1	75	10	1	91	6	1	662.38	49	14
7	23	9	6	3	1	75	10	1	92	6	7	708.83	49	15
7	23	9	6	3	1	75	10	1	93	16	9	7.92	49	1
7	23	9	6	3	1	75	10	1	94	6	5	560.37	49	12
7	23	9	6	3	1	75	10	1	95	6	2	689.34	49	14
7	23	9	6	3	1	75	10	1	96	6	1	8.3	49	1
7	23	9	6	3	1	75	10	1	96	6	1	770.69	49	16
7	23	9	6	3	1	75	10	1	97	6	9	10.68	49	1
7	23	9	6	3	1	75	10	1	98	16	2	278.79	49	6
7	23	9	6	3	1	75	10	1	99	6	4	539.4	49	11
7	23	9	6	3	1	75	10	1	100	16	4	0	-1	16
7	23	9	6	3	1	75	10	1	101	6	10	689.61	49	14
7	23	9	6	3	1	75	10	1	102	6	3	8.96	49	1
7	23	9	6	3	1	75	10	1	102	6	3	665.28	49	14
7	23	9	6	3	1	75	10	1	103	6	6	10.39	49	1
7	23	9	6	3	1	75	10	1	103	6	6	691.6	49	14
7	23	9	6	3	1	75	10	1	104	6	8	7.62	49	1
7	23	9	6	3	1	75	10	1	104	6	8	765.37	49	16
7	23	9	6	3	1	75	10	1	105	6	5	7.88	49	1
7	23	9	6	3	1	75	10	1	105	6	5	591.5	49	12
7	23	9	6	3	1	75	10	1	106	6	9	639.63	49	13
7	23	9	6	3	1	75	10	1	107	16	10	0	-1	16
7	23	9	6	3	1	75	10	1	108	6	4	543.74	49	11
7	23	9	6	3	1	75	10	1	109	16	1	686.75	49	14
7	23	9	6	3	1	75	10	1	110	6	2	728.57	49	15
7	23	9	6	3	1	75	10	1	111	6	10	13.27	49	1
7	23	9	6	3	1	75	10	1	112	6	6	31.33	49	1
7	23	9	6	3	1	75	10	1	113	16	5	112.44	49	3
7	23	9	6	3	1	75	10	1	114	6	3	511.43	49	11
7	23	9	6	3	1	75	10	1	115	6	7	0	-1	16
7	23	9	6	3	1	75	10	1	116	16	3	22.47	49	1
7	23	9	6	3	1	75	10	1	117	16	6	0	-1	16
7	23	9	6	3	1	75	10	1	118	16	8	0	-1	16
7	23	9	6	3	1	75	10	1	119	6	8	589.88	49	12
7	23	9	6	3	1	75	10	1	120	6	1	691.15	49	14
7	23	9	6	3	1	75	10	1	121	16	5	7.89	49	1
7	23	9	6	3	1	75	10	1	122	6	5	562.06	49	12
7	23	9	6	3	1	75	10	1	123	6	2	739.68	49	15
7	23	9	6	3	1	75	10	1	124	16	4	10.97	49	1
7	23	9	6	3	1	75	10	1	125	16	9	0	-1	16
7	23	9	6	3	1	75	10	1	126	16	10	0	-1	16
7	23	9	6	3	1	75	10	1	127	6	10	680.88	49	14
7	23	9	6	3	1	75	10	1	128	16	2	8.07	49	1
7	23	9	6	3	1	75	10	1	129	16	6	0	-1	16
7	23	9	6	3	1	75	10	1	130	16	8	0	-1	16
7	23	9	6	3	1	75	10	1	131	16	7	0	-1	16
7	23	9	6	3	1	75	10	1	132	6	9	624.83	49	13
7	23	9	6	3	1	75	10	1	133	6	4	7.69	49	1
7	23	9	6	3	1	75	10	1	133	6	4	716.08	49	15
7	23	9	6	3	1	75	10	1	134	6	8	8.73	49	1
7	23	9	6	3	1	75	10	1	134	6	8	717.24	49	15
7	23	9	6	3	1	75	10	1	135	6	7	10.95	49	1
7	23	9	6	3	1	75	10	1	135	6	7	709.75	49	15
7	23	9	6	3	1	75	10	1	136	6	3	10.57	49	1
7	23	9	6	3	1	75	10	1	136	6	3	660.68	49	14
7	23	9	6	3	1	75	10	1	137	6	6	710.38	49	15
7	23	9	6	3	1	75	10	1	138	6	1	10.64	49	1
7	23	9	6	3	1	75	10	1	139	16	3	38.19	49	1
7	23	9	6	3	1	75	10	1	140	16	1	0	-1	16
7	23	9	6	3	1	75	10	1	141	16	6	0	-1	16
7	23	9	6	3	1	75	10	1	142	6	7	641.4	49	13
7	23	9	6	3	1	75	10	1	143	6	2	774.73	49	16
7	23	9	6	3	1	75	10	1	144	16	10	7.82	49	1
7	23	9	6	3	1	75	10	1	145	6	10	585.69	49	12
7	23	9	6	3	1	75	10	1	146	6	4	687.57	49	14
7	23	9	6	3	1	75	10	1	147	6	5	10.8	49	1
7	23	9	6	3	1	75	10	1	147	6	5	660.39	49	14
7	23	9	6	3	1	75	10	1	148	6	1	10.82	49	1
7	23	9	6	3	1	75	10	1	148	6	1	683.26	49	14
7	23	9	6	3	1	75	10	1	149	6	9	10.33	49	1
7	23	9	6	3	1	75	10	1	149	6	9	619.76	49	13
7	23	9	6	3	1	75	10	1	150	6	6	677.97	49	14
7	23	9	6	3	1	75	10	1	151	6	3	12.59	49	1
7	23	9	6	3	1	75	10	1	151	6	3	682.32	49	14
7	23	9	6	3	1	75	10	1	152	6	8	12.02	49	1
7	23	9	6	3	1	75	10	1	153	6	7	10.55	49	1
7	23	9	6	3	1	75	10	1	154	6	9	73.56	49	2
7	23	9	6	3	1	75	10	1	154	6	9	665.67	49	14
7	23	9	6	3	1	75	10	1	155	6	4	8	49	1
7	23	9	6	3	1	75	10	1	155	6	4	607.84	49	13
7	23	9	6	3	1	75	10	1	156	6	2	0	-1	16
7	23	9	6	3	1	75	10	1	157	6	10	128.79	49	3
7	23	9	6	3	1	75	10	1	157	6	10	789.51	49	16
7	23	9	6	3	1	75	10	1	158	6	5	7.88	49	1
7	23	9	6	3	1	75	10	1	158	6	5	642.76	49	13
7	23	9	6	3	1	75	10	1	159	6	1	695.88	49	14
7	23	9	6	3	1	75	10	1	160	6	3	7.97	49	1
7	23	9	6	3	1	75	10	1	160	6	3	661.06	49	14
7	23	9	6	3	1	75	10	1	161	16	4	9.69	49	1
7	23	9	6	3	1	75	10	1	162	6	6	630.02	49	13
7	23	9	6	3	1	75	10	1	163	16	8	0	-1	16
7	23	9	6	3	1	75	10	1	164	6	8	735.79	49	15
7	23	9	6	3	1	75	10	1	165	6	6	10.9	49	1
7	23	9	6	3	1	75	10	1	166	16	7	18.93	49	1
7	23	9	6	3	1	75	10	1	167	6	4	557.65	49	12
7	23	9	6	3	1	75	10	1	168	6	5	739.24	49	15
7	23	9	6	3	1	75	10	1	169	6	10	7.84	49	1
7	23	9	6	3	1	75	10	1	169	6	10	707.78	49	15
7	23	9	6	3	1	75	10	1	170	6	9	10.53	49	1
7	23	9	6	3	1	75	10	1	170	6	9	776.02	49	16
7	23	9	6	3	1	75	10	1	171	6	7	7.98	49	1
7	23	9	6	3	1	75	10	1	172	16	5	342.38	49	7
7	23	9	6	3	1	75	10	1	173	6	2	531.77	49	11
7	23	9	6	3	1	75	10	1	174	16	2	0	-1	16
7	23	9	6	3	1	75	10	1	175	6	1	563	49	12
7	23	9	6	3	1	75	10	1	176	6	8	776.88	49	16
7	23	9	6	3	1	75	10	1	177	6	3	9.87	49	1
7	23	9	6	3	1	75	10	1	177	6	3	709.77	49	15
7	23	9	6	3	1	75	10	1	178	6	5	9.2	49	1
7	23	9	6	3	1	75	10	1	178	6	5	633.81	49	13
7	23	9	6	3	1	75	10	1	179	6	4	630.59	49	13
7	23	9	6	3	1	75	10	1	180	6	2	0	-1	16
7	23	9	6	3	1	75	10	1	181	6	10	8.16	49	1
7	23	9	6	3	1	75	10	1	181	6	10	634.9	49	13
7	23	9	6	3	1	75	10	1	182	6	9	668.11	49	14
7	23	9	6	3	1	75	10	1	183	6	6	7.95	49	1
7	23	9	6	3	1	75	10	1	183	6	6	707.38	49	15
7	23	9	6	3	1	75	10	1	184	16	9	10.51	49	1
7	23	9	6	3	1	75	10	1	185	16	1	0	-1	16
7	23	9	6	3	1	75	10	1	186	6	8	725.01	49	15
7	23	9	6	3	1	75	10	1	187	6	7	64.38	49	2
7	23	9	6	3	1	75	10	1	187	6	7	768.75	49	16
7	23	9	6	3	1	75	10	1	188	6	3	12.82	49	1
7	23	9	6	3	1	75	10	1	188	6	3	724.76	49	15
7	23	9	6	3	1	75	10	1	189	6	1	12.41	49	1
7	23	9	6	3	1	75	10	1	189	6	1	681.78	49	14
7	23	9	6	3	1	75	10	1	190	6	6	9.17	49	1
7	23	9	6	3	1	75	10	1	190	6	6	692.05	49	14
7	23	9	6	3	1	75	10	1	191	16	3	9.11	49	1
7	23	9	6	3	1	75	10	1	192	6	4	587.55	49	12
7	23	9	6	3	1	75	10	1	193	6	1	689.67	49	14
7	23	9	6	3	1	75	10	1	194	6	2	7.68	49	1
7	23	9	6	3	1	75	10	1	194	6	2	716.81	49	15
7	23	9	6	3	1	75	10	1	195	16	6	9.4	49	1
7	23	9	6	3	1	75	10	1	196	6	5	516.07	49	11
7	23	9	6	3	1	75	10	1	197	6	9	662.04	49	14
7	23	9	6	3	1	75	10	1	198	16	8	10.64	49	1
7	23	9	6	3	1	75	10	1	199	16	10	613.21	49	13
7	23	9	6	3	1	75	10	1	200	6	10	0	-1	16
7	23	9	6	3	1	75	10	1	201	6	7	165.39	49	4
7	23	9	6	3	1	75	10	1	201	6	7	764.22	49	16
7	23	9	6	3	1	75	10	1	202	6	8	32.13	49	1
7	23	9	6	3	1	75	10	1	202	6	8	669.28	49	14
7	23	9	6	3	1	75	10	1	203	16	2	0	-1	16
7	23	9	6	3	1	75	10	1	204	6	3	612.54	49	13
7	23	9	6	3	1	75	10	1	205	16	7	0	-1	16
7	23	9	6	3	1	75	10	1	206	6	7	609.89	49	13
7	23	9	6	3	1	75	10	1	207	6	1	0	-1	16
7	23	9	6	3	1	75	10	1	208	6	5	9.68	49	1
7	23	9	6	3	1	75	10	1	208	6	5	560.1	49	12
7	23	9	6	3	1	75	10	1	209	16	1	0	-1	16
7	23	9	6	3	1	75	10	1	210	6	10	724.85	49	15
7	23	9	6	3	1	75	10	1	211	6	4	9.92	49	1
7	23	9	6	3	1	75	10	1	211	6	4	639.89	49	13
7	23	9	6	3	1	75	10	1	212	16	4	0	-1	16
7	23	9	6	3	1	75	10	1	213	6	2	708.95	49	15
7	23	9	6	3	1	75	10	1	214	6	9	8.87	49	1
7	23	9	6	3	1	75	10	1	214	6	9	761.5	49	16
7	23	9	6	3	1	75	10	1	215	16	5	7.95	49	1
7	23	9	6	3	1	75	10	1	216	6	3	558.92	49	12
7	23	9	6	3	1	75	10	1	217	6	6	675.99	49	14
7	23	9	6	3	1	75	10	1	218	6	8	7.6	49	1
7	23	9	6	3	1	75	10	1	219	6	6	32.62	49	1
7	23	9	6	3	1	75	10	1	219	6	6	768.43	49	16
7	23	9	6	3	1	75	10	1	220	6	4	8.01	49	1
7	23	9	6	3	1	75	10	1	220	6	4	707.54	49	15
7	23	9	6	3	1	75	10	1	221	16	9	10.54	49	1
7	23	9	6	3	1	75	10	1	222	6	9	637.33	49	13
7	23	9	6	3	1	75	10	1	223	6	10	742.65	49	15
7	23	9	6	3	1	75	10	1	224	6	1	10.8	49	1
7	23	9	6	3	1	75	10	1	224	6	1	760.46	49	16
7	23	9	6	3	1	75	10	1	225	16	3	12.97	49	1
7	23	9	6	3	1	75	10	1	226	6	2	660.66	49	14
7	23	9	6	3	1	75	10	1	227	6	7	11.4	49	1
7	23	9	6	3	1	75	10	1	228	6	5	59.92	49	2
7	23	9	6	3	1	75	10	1	228	6	5	609.94	49	13
7	23	9	6	3	1	75	10	1	229	6	8	707.16	49	15
7	23	9	6	3	1	75	10	1	230	6	3	7.78	49	1
7	23	9	6	3	1	75	10	1	230	6	3	713.73	49	15
7	23	9	6	3	1	75	10	1	231	6	6	7.91	49	1
7	23	9	6	3	1	75	10	1	231	6	6	726.85	49	15
7	23	9	6	3	1	75	10	1	232	16	6	8.58	49	1
7	23	9	6	3	1	75	10	1	233	16	7	0	-1	16
7	23	9	6	3	1	75	10	1	234	6	5	586.11	49	12
7	23	9	6	3	1	75	10	1	235	6	7	0	-1	16
7	23	9	6	3	1	75	10	1	236	16	8	10.59	49	1
7	23	9	6	3	1	75	10	1	237	6	1	722.26	49	15
7	23	9	6	3	1	75	10	1	238	6	2	9.85	49	1
7	23	9	6	3	1	75	10	1	239	6	8	136.94	49	3
7	23	9	6	3	1	75	10	1	239	6	8	690.82	49	14
7	23	9	6	3	1	75	10	1	240	6	4	7.98	49	1
7	23	9	6	3	1	75	10	1	240	6	4	711.9	49	15
7	23	9	6	3	1	75	10	1	241	6	9	10.47	49	1
7	23	9	6	3	1	75	10	1	241	6	9	719.32	49	15
7	23	9	6	3	1	75	10	1	242	6	10	8.55	49	1
7	23	9	6	3	1	75	10	1	242	6	10	668.36	49	14
7	23	9	6	3	1	75	10	1	243	6	3	7.66	49	1
7	23	9	6	3	1	75	10	1	243	6	3	613.04	49	13
7	23	9	6	3	1	75	10	1	244	16	5	0	-1	16
7	23	9	6	3	1	75	10	1	245	6	7	710.51	49	15
7	23	9	6	3	1	75	10	1	246	6	10	11.31	49	1
7	23	9	6	3	1	75	10	1	246	6	10	680.43	49	14
7	23	9	6	3	1	75	10	1	247	6	4	13.41	49	1
7	23	9	6	3	1	75	10	1	247	6	4	662.26	49	14
7	23	9	6	3	1	75	10	1	248	6	2	11.59	49	1
7	23	9	6	3	1	75	10	1	249	6	5	61.07	49	2
7	23	9	6	3	1	75	10	1	249	6	5	672.08	49	14
7	23	9	6	3	1	75	10	1	250	16	2	13.04	49	1
7	23	9	6	3	1	75	10	1	251	16	1	0	-1	16
7	23	9	6	3	1	75	10	1	252	6	1	679.64	49	14
7	23	9	6	3	1	75	10	1	253	16	4	8.12	49	1
7	23	9	6	3	1	75	10	1	254	6	9	759.06	49	16
7	23	9	6	3	1	75	10	1	255	6	6	7.81	49	1
7	23	9	6	3	1	75	10	1	255	6	6	785.12	49	16
7	23	9	6	3	1	75	10	1	256	6	3	10.46	49	1
7	23	9	6	3	1	75	10	1	256	6	3	772.75	49	16
7	23	9	6	3	1	75	10	1	257	6	8	8.5	49	1
7	23	9	6	3	1	75	10	1	257	6	8	763.33	49	16
7	23	9	6	3	1	75	10	1	258	6	6	8.61	49	1
7	23	9	6	3	1	75	10	1	258	6	6	772.72	49	16
7	23	9	6	3	1	75	10	1	259	6	2	9.31	49	1
7	23	9	6	3	1	75	10	1	260	6	7	9.85	49	1
7	23	9	6	3	1	75	10	1	260	6	7	666.97	49	14
7	23	9	6	3	1	75	10	1	261	16	9	10.2	49	1
7	23	9	6	3	1	75	10	1	262	6	8	668.92	49	14
7	23	9	6	3	1	75	10	1	263	6	5	10.36	49	1
7	23	9	6	3	1	75	10	1	263	6	5	666.1	49	14
7	23	9	6	3	1	75	10	1	264	6	9	9.28	49	1
7	23	9	6	3	1	75	10	1	264	6	9	682.89	49	14
7	23	9	6	3	1	75	10	1	265	16	10	10.63	49	1
7	23	9	6	3	1	75	10	1	266	6	1	0	-1	16
7	23	9	6	3	1	75	10	1	267	6	4	157.21	49	4
7	23	9	6	3	1	75	10	1	267	6	4	560.55	49	12
7	23	9	6	3	1	75	10	1	268	6	10	622.98	49	13
7	23	9	6	3	1	75	10	1	269	16	3	0	-1	16
7	23	9	6	3	1	75	10	1	270	6	3	615.68	49	13
7	23	9	6	3	1	75	10	1	271	16	7	0	-1	16
7	23	9	6	3	1	75	10	1	272	6	6	710.21	49	15
7	23	9	6	3	1	75	10	1	273	16	1	11.26	49	1
7	23	9	6	3	1	75	10	1	274	6	8	734.8	49	15
7	23	9	6	3	1	75	10	1	275	6	4	10.24	49	1
7	23	9	6	3	1	75	10	1	275	6	4	737.34	49	15
7	23	9	6	3	1	75	10	1	276	16	10	15.56	49	1
7	23	9	6	3	1	75	10	1	277	6	10	678.25	49	14
7	23	9	6	3	1	75	10	1	278	6	2	7.77	49	1
7	23	9	6	3	1	75	10	1	279	6	9	95.54	49	2
7	23	9	6	3	1	75	10	1	280	6	1	10.03	49	1
7	23	9	6	3	1	75	10	1	280	6	1	724.73	49	15
7	23	9	6	3	1	75	10	1	281	6	5	7.55	49	1
7	23	9	6	3	1	75	10	1	281	6	5	615.53	49	13
7	23	9	6	3	1	75	10	1	282	6	7	679.57	49	14
7	23	9	6	3	1	75	10	1	283	6	3	7.85	49	1
7	23	9	6	3	1	75	10	1	283	6	3	708.82	49	15
7	23	9	6	3	1	75	10	1	284	6	2	8.81	49	1
7	23	9	6	3	1	75	10	1	284	6	2	764.27	49	16
7	23	9	6	3	1	75	10	1	285	6	10	10.94	49	1
7	23	9	6	3	1	75	10	1	285	6	10	714.18	49	15
7	23	9	6	3	1	75	10	1	286	6	9	10.58	49	1
7	23	9	6	3	1	75	10	1	286	6	9	760.42	49	16
7	23	9	6	3	1	75	10	1	287	6	8	10.81	49	1
7	23	9	6	3	1	75	10	1	287	6	8	713.22	49	15
7	23	9	6	3	1	75	10	1	288	16	9	12.93	49	1
7	23	9	6	3	1	75	10	1	289	6	5	558.24	49	12
7	23	9	6	3	1	75	10	1	290	6	1	660.06	49	14
7	23	9	6	3	1	75	10	1	291	6	7	7.93	49	1
7	23	9	6	3	1	75	10	1	291	6	7	759.22	49	16
7	23	9	6	3	1	75	10	1	292	16	2	9.97	49	1
7	23	9	6	3	1	75	10	1	293	6	3	647.14	49	13
7	23	9	6	3	1	75	10	1	294	6	6	7.63	49	1
7	23	9	6	3	1	75	10	1	294	6	6	758.81	49	16
7	23	9	6	3	1	75	10	1	295	6	4	8.63	49	1
7	23	9	6	3	1	75	10	1	296	16	5	9.31	49	1
7	23	9	6	3	1	75	10	1	297	16	4	669.56	49	14
7	23	9	6	3	1	75	10	1	298	6	2	13.19	49	1
7	23	9	6	3	1	75	10	1	299	6	9	287.6	49	6
7	23	9	6	3	1	75	10	1	300	6	10	62.63	49	2
7	23	9	6	3	1	75	10	1	300	6	10	760.98	49	16
7	23	9	6	3	1	75	10	1	301	16	6	9.66	49	1
7	23	9	6	3	1	75	10	1	302	6	1	558.15	49	12
7	23	9	6	3	1	75	10	1	303	6	8	714.86	49	15
7	23	9	6	3	1	75	10	1	304	16	3	8.16	49	1
7	23	9	6	3	1	75	10	1	305	6	6	621.37	49	13
7	23	9	6	3	1	75	10	1	306	16	8	0	-1	16
7	23	9	6	3	1	75	10	1	307	6	7	686.5	49	14
7	23	9	6	3	1	75	10	1	308	6	3	7.99	49	1
7	23	9	6	3	1	75	10	1	308	6	3	626.98	49	13
7	23	9	6	3	1	75	10	1	309	16	7	0	-1	16
7	23	9	6	3	1	75	10	1	310	16	1	0	-1	16
7	23	9	6	3	1	75	10	1	311	6	5	660	49	14
7	23	9	6	3	1	75	10	1	312	6	4	10.67	49	1
7	23	9	6	3	1	75	10	1	312	6	4	660.74	49	14
7	23	9	6	3	1	75	10	1	313	6	7	8.83	49	1
7	23	9	6	3	1	75	10	1	313	6	7	729.09	49	15
7	23	9	6	3	1	75	10	1	314	16	9	9.6	49	1
7	23	9	6	3	1	75	10	1	315	6	9	660.13	49	14
7	23	9	6	3	1	75	10	1	316	16	4	8.3	49	1
7	23	9	6	3	1	75	10	1	317	6	2	680.89	49	14
7	23	9	6	3	1	75	10	1	318	6	4	8.12	49	1
7	23	9	6	3	1	75	10	1	318	6	4	561.33	49	12
7	23	9	6	3	1	75	10	1	319	16	5	0	-1	16
7	23	9	6	3	1	75	10	1	320	6	5	564.1	49	12
7	23	9	6	3	1	75	10	1	321	6	1	710.29	49	15
7	23	9	6	3	1	75	10	1	322	6	10	9.98	49	1
7	23	9	6	3	1	75	10	1	322	6	10	730.15	49	15
7	23	9	6	3	1	75	10	1	323	16	10	11.33	49	1
7	23	9	6	3	1	75	10	1	324	16	2	0	-1	16
7	23	9	6	3	1	75	10	1	325	6	6	0	-1	16
7	23	9	6	3	1	75	10	1	326	6	3	141.89	49	3
7	23	9	6	3	1	75	10	1	326	6	3	708.75	49	15
7	23	9	6	3	1	75	10	1	327	6	8	10.39	49	1
7	23	9	6	3	1	75	10	1	327	6	8	708.12	49	15
7	23	9	6	3	1	75	10	1	328	6	5	7.88	49	1
7	23	9	6	3	1	75	10	1	328	6	5	669.81	49	14
7	23	9	6	3	1	75	10	1	329	6	10	7.65	49	1
7	23	9	6	3	1	75	10	1	329	6	10	759.69	49	16
7	23	9	6	3	1	75	10	1	330	6	4	8.05	49	1
7	23	9	6	3	1	75	10	1	330	6	4	736.41	49	15
7	23	9	6	3	1	75	10	1	331	6	9	7.84	49	1
7	23	9	6	3	1	75	10	1	331	6	9	760.66	49	16
7	23	9	6	3	1	75	10	1	332	6	2	7.41	49	1
7	23	9	6	3	1	75	10	1	332	6	2	691.48	49	14
7	23	9	6	3	1	75	10	1	333	6	8	8.27	49	1
7	23	9	6	3	1	75	10	1	334	6	7	113.64	49	3
7	23	9	6	3	1	75	10	1	334	6	7	784.88	49	16
7	23	9	6	3	1	75	10	1	335	6	3	12.31	49	1
7	23	9	6	3	1	75	10	1	335	6	3	709.92	49	15
7	23	9	6	3	1	75	10	1	336	6	6	10.58	49	1
7	23	9	6	3	1	75	10	1	336	6	6	760.77	49	16
7	23	9	6	3	1	75	10	1	337	6	1	13.12	49	1
7	23	9	6	3	1	75	10	1	337	6	1	766.74	49	16
7	23	9	6	3	1	75	10	1	338	6	7	12.52	49	1
7	23	9	6	3	1	75	10	1	338	6	7	759.5	49	16
7	23	9	6	3	1	75	10	1	339	6	9	11.78	49	1
7	23	9	6	3	1	75	10	1	339	6	9	664.51	49	14
7	23	9	6	3	1	75	10	1	340	6	4	8.26	49	1
7	23	9	6	3	1	75	10	1	340	6	4	612.2	49	13
7	23	9	6	3	1	75	10	1	341	6	10	683.02	49	14
7	23	9	6	3	1	75	10	1	342	6	5	8.02	49	1
7	23	9	6	3	1	75	10	1	342	6	5	675.97	49	14
7	23	9	6	3	1	75	10	1	343	16	6	7.93	49	1
7	23	9	6	3	1	75	10	1	344	16	3	0	-1	16
7	23	9	6	3	1	75	10	1	345	16	8	0	-1	16
7	23	9	6	3	1	75	10	1	346	6	2	678.86	49	14
7	23	9	6	3	1	75	10	1	347	16	2	0	-1	16
7	23	9	6	3	1	75	10	1	348	6	1	0	-1	16
7	23	9	6	3	1	75	10	1	349	6	3	13	49	1
7	23	9	6	3	1	75	10	1	349	6	3	610.21	49	13
7	23	9	6	3	1	75	10	1	350	6	6	720.78	49	15
7	23	9	6	3	1	75	10	1	351	6	8	14.8	49	1
7	23	9	6	3	1	75	10	1	352	6	2	9.16	49	1
7	23	9	6	3	1	75	10	1	353	6	9	30.54	49	1
7	23	9	6	3	1	75	10	1	353	6	9	633.34	49	13
7	23	9	6	3	1	75	10	1	354	6	10	485.02	49	10
7	23	9	6	3	1	75	10	1	355	6	7	616.8	49	13
7	23	9	6	3	1	75	10	1	356	16	9	0	-1	16
7	23	9	6	3	1	75	10	1	357	6	1	627.02	49	13
7	23	9	6	3	1	75	10	1	358	6	6	10.03	49	1
7	23	9	6	3	1	75	10	1	358	6	6	734.2	49	15
7	23	9	6	3	1	75	10	1	359	6	5	10.96	49	1
7	23	9	6	3	1	75	10	1	359	6	5	610.34	49	13
7	23	9	6	3	1	75	10	1	360	6	8	0	-1	16
7	23	9	6	3	1	75	10	1	361	6	3	63.71	49	2
7	23	9	6	3	1	75	10	1	361	6	3	662.65	49	14
7	23	9	6	3	1	75	10	1	362	6	4	9.75	49	1
7	23	9	6	3	1	75	10	1	362	6	4	627.6	49	13
7	23	9	6	3	1	75	10	1	363	6	5	644.43	49	13
7	23	9	6	3	1	75	10	1	364	6	2	634.13	49	13
7	23	9	6	3	1	75	10	1	365	16	10	686.47	49	14
7	23	9	6	3	1	75	10	1	366	6	10	9.95	49	1
7	23	9	6	3	1	75	10	1	366	6	10	563.69	49	12
7	23	9	6	3	1	75	10	1	367	6	9	771.35	49	16
7	23	9	6	3	1	75	10	1	368	6	4	7.88	49	1
7	23	9	6	3	1	75	10	1	368	6	4	625.32	49	13
7	23	9	6	3	1	75	10	1	369	6	3	741.09	49	15
7	23	9	6	3	1	75	10	1	370	6	8	8.55	49	1
7	23	9	6	3	1	75	10	1	370	6	8	765.65	49	16
7	23	9	6	3	1	75	10	1	371	6	7	10.16	49	1
7	23	9	6	3	1	75	10	1	371	6	7	785.14	49	16
7	23	9	6	3	1	75	10	1	372	6	6	10.77	49	1
7	23	9	6	3	1	75	10	1	372	6	6	735.4	49	15
7	23	9	6	3	1	75	10	1	373	6	1	11.47	49	1
7	23	9	6	3	1	75	10	1	373	6	1	760.41	49	16
7	23	9	6	3	1	75	10	1	374	6	2	11.95	49	1
7	23	9	6	3	1	75	10	1	375	6	10	67.06	49	2
7	23	9	6	3	1	75	10	1	375	6	10	567.67	49	12
7	23	9	6	3	1	75	10	1	376	6	9	724.03	49	15
7	23	9	6	3	1	75	10	1	377	6	7	7.79	49	1
7	23	9	6	3	1	75	10	1	377	6	7	670.58	49	14
7	23	9	6	3	1	75	10	1	378	16	7	10.69	49	1
7	23	9	6	3	1	75	10	1	379	16	3	0	-1	16
7	23	9	6	3	1	75	10	1	380	16	5	0	-1	16
7	23	9	6	3	1	75	10	1	381	6	5	643.14	49	13
7	23	9	6	3	1	75	10	1	382	16	6	8.06	49	1
7	23	9	6	3	1	75	10	1	383	6	8	686.95	49	14
7	23	9	6	3	1	75	10	1	384	6	1	11.04	49	1
7	23	9	6	3	1	75	10	1	384	6	1	741.89	49	15
7	23	9	6	3	1	75	10	1	385	6	6	12.57	49	1
7	23	9	6	3	1	75	10	1	385	6	6	774.38	49	16
7	23	9	6	3	1	75	10	1	386	6	3	11.19	49	1
7	23	9	6	3	1	75	10	1	387	16	8	27.38	49	1
7	23	9	6	3	1	75	10	1	387	16	8	633.14	49	13
7	23	9	6	3	1	75	10	1	388	6	4	9.75	49	1
7	23	9	6	3	1	75	10	1	389	6	7	23.22	49	1
7	23	9	6	3	1	75	10	1	389	6	7	737.37	49	15
7	23	9	6	3	1	75	10	1	390	6	1	10.78	49	1
7	23	9	6	3	1	75	10	1	391	6	2	8.14	49	1
7	23	9	6	3	1	75	10	1	391	6	2	786.39	49	16
7	23	9	6	3	1	75	10	1	392	6	5	7.9	49	1
7	23	9	6	3	1	75	10	1	392	6	5	681.54	49	14
7	23	9	6	3	1	75	10	1	393	16	1	7.72	49	1
7	23	9	6	3	1	75	10	1	394	6	10	767.9	49	16
7	23	9	6	3	1	75	10	1	395	16	4	10.8	49	1
7	23	9	6	3	1	75	10	1	396	6	4	717.53	49	15
7	23	9	6	3	1	75	10	1	397	6	9	10.25	49	1
7	23	9	6	3	1	75	10	1	397	6	9	710.18	49	15
7	23	9	6	3	1	75	10	1	398	6	6	13.83	49	1
7	23	9	6	3	1	75	10	1	398	6	6	667.02	49	14
7	23	9	6	3	1	75	10	1	399	6	3	13.07	49	1
7	23	9	6	3	1	75	10	1	400	6	8	61.44	49	2
7	23	9	6	3	1	75	10	1	401	16	5	65.55	49	2
7	23	9	6	3	1	75	10	1	402	6	6	595.2	49	12
7	23	9	6	3	1	75	10	1	403	16	9	0	-1	16
7	23	9	6	3	1	75	10	1	404	6	10	607.46	49	13
7	23	9	6	3	1	75	10	1	405	6	9	0	-1	16
7	23	9	6	3	1	75	10	1	406	16	2	7.84	49	1
7	23	9	6	3	1	75	10	1	407	16	10	0	-1	16
7	23	9	6	3	1	75	10	1	408	6	5	640.96	49	13
7	23	9	6	3	1	75	10	1	409	16	4	0	-1	16
7	23	9	6	3	1	75	10	1	410	16	6	0	-1	16
7	23	9	6	3	1	75	10	1	411	6	7	722	49	15
7	23	9	6	3	1	75	10	1	412	16	7	10.18	49	1
7	23	9	6	3	1	75	10	1	413	6	4	626.38	49	13
7	23	9	6	3	1	75	10	1	414	16	8	0	-1	16
7	23	9	6	3	1	75	10	1	415	6	2	710.23	49	15
7	23	9	6	3	1	75	10	1	416	6	1	7.73	49	1
7	23	9	6	3	1	75	10	1	416	6	1	742.58	49	15
7	23	9	6	3	1	75	10	1	417	6	8	8.52	49	1
7	23	9	6	3	1	75	10	1	417	6	8	723.14	49	15
7	23	9	6	3	1	75	10	1	418	6	3	8.5	49	1
7	23	9	6	3	1	75	10	1	418	6	3	659.09	49	14
7	23	9	6	3	1	75	10	1	419	6	2	745.87	49	15
7	23	9	6	3	1	75	10	1	420	6	10	8.63	49	1
7	23	9	6	3	1	75	10	1	420	6	10	711.94	49	15
7	23	9	6	3	1	75	10	1	421	16	3	10.36	49	1
7	23	9	6	3	1	75	10	1	422	6	9	662.22	49	14
7	23	9	6	3	1	75	10	1	423	16	1	10.72	49	1
7	23	9	6	3	1	75	10	1	424	6	7	763.98	49	16
7	23	9	6	3	1	75	10	1	425	6	6	11.95	49	1
7	23	9	6	3	1	75	10	1	426	16	6	66.77	49	2
7	23	9	6	3	1	75	10	1	427	6	5	530.88	49	11
7	23	9	6	3	1	75	10	1	428	16	7	0	-1	16
7	23	9	6	3	1	75	10	1	429	6	8	531.28	49	11
7	23	9	6	3	1	75	10	1	430	6	1	0	-1	16
7	23	9	6	3	1	75	10	1	431	16	1	40.03	49	1
7	23	9	6	3	1	75	10	1	432	6	3	757.89	49	16
7	23	9	6	3	1	75	10	1	433	6	4	9.21	49	1
7	23	9	6	3	1	75	10	1	433	6	4	675.67	49	14
7	23	9	6	3	1	75	10	1	434	6	6	10.43	49	1
7	23	9	6	3	1	75	10	1	435	6	1	10.35	49	1
7	23	9	6	3	1	75	10	1	435	6	1	717.96	49	15
7	23	9	6	3	1	75	10	1	436	6	4	10.12	49	1
7	23	9	6	3	1	75	10	1	436	6	4	723.9	49	15
7	23	9	6	3	1	75	10	1	437	6	10	10.33	49	1
7	23	9	6	3	1	75	10	1	437	6	10	709.64	49	15
7	23	9	6	3	1	75	10	1	438	6	5	9.09	49	1
7	23	9	6	3	1	75	10	1	438	6	5	720.96	49	15
7	23	9	6	3	1	75	10	1	439	16	10	10.47	49	1
7	23	9	6	3	1	75	10	1	440	6	7	782.4	49	16
7	23	9	6	3	1	75	10	1	441	6	2	8.84	49	1
7	23	9	6	3	1	75	10	1	441	6	2	673.88	49	14
7	23	9	6	3	1	75	10	1	442	6	9	8.24	49	1
7	23	9	6	3	1	75	10	1	443	6	8	8.1	49	1
7	23	9	6	3	1	75	10	1	443	6	8	757.21	49	16
7	23	9	6	3	1	75	10	1	444	6	3	10.12	49	1
7	23	9	6	3	1	75	10	1	444	6	3	689.97	49	14
7	23	9	6	3	1	75	10	1	445	6	5	8.81	49	1
7	23	9	6	3	1	75	10	1	445	6	5	644.74	49	13
7	23	9	6	3	1	75	10	1	446	6	4	591.9	49	12
7	23	9	6	3	1	75	10	1	447	6	9	680.26	49	14
7	23	9	6	3	1	75	10	1	448	6	2	10.05	49	1
7	23	9	6	3	1	75	10	1	449	6	10	9.95	49	1
7	23	9	6	3	1	75	10	1	449	6	10	768.18	49	16
7	23	9	6	3	1	75	10	1	450	6	8	10.11	49	1
7	23	9	6	3	1	75	10	1	450	6	8	791.62	49	16
