SubjectNum	Age	Gender	PressedTask	Block Type	Block Repeat Num	Response Rate	Onset	Block	Trial	ImgType	ImgNum	RT	PressedC	FrameC
17	24	9	6	2	1	75	10	1	1	6	5	575.39	49	11
17	24	9	6	2	1	75	10	1	1	6	5	809.52	49	16
17	24	9	6	2	1	75	10	1	2	6	10	12.77	49	1
17	24	9	6	2	1	75	10	1	2	6	10	361.75	49	8
17	24	9	6	2	1	75	10	1	3	6	4	358.25	49	8
17	24	9	6	2	1	75	10	1	3	6	4	560.87	49	12
17	24	9	6	2	1	75	10	1	4	6	9	432.49	49	9
17	24	9	6	2	1	75	10	1	5	16	7	389.95	49	8
17	24	9	6	2	1	75	10	1	5	16	7	610.34	49	13
17	24	9	6	2	1	75	10	1	6	6	2	535.22	49	11
17	24	9	6	2	1	75	10	1	7	6	3	485.43	49	10
17	24	9	6	2	1	75	10	1	8	16	9	419.64	49	9
17	24	9	6	2	1	75	10	1	9	6	8	514.66	49	11
17	24	9	6	2	1	75	10	1	10	16	2	789.79	49	16
17	24	9	6	2	1	75	10	1	11	6	7	11.98	49	1
17	24	9	6	2	1	75	10	1	11	6	7	763.49	49	16
17	24	9	6	2	1	75	10	1	12	6	6	8.84	49	1
17	24	9	6	2	1	75	10	1	12	6	6	658.62	49	14
17	24	9	6	2	1	75	10	1	13	6	1	42.49	49	1
17	24	9	6	2	1	75	10	1	13	6	1	571.58	49	12
17	24	9	6	2	1	75	10	1	14	16	5	0	-1	16
17	24	9	6	2	1	75	10	1	15	6	5	478.43	49	10
17	24	9	6	2	1	75	10	1	16	6	2	384.63	49	8
17	24	9	6	2	1	75	10	1	17	6	4	457.83	49	10
17	24	9	6	2	1	75	10	1	18	6	9	465.4	49	10
17	24	9	6	2	1	75	10	1	19	6	10	511.05	49	11
17	24	9	6	2	1	75	10	1	20	16	1	613.21	49	13
17	24	9	6	2	1	75	10	1	21	6	3	659.77	49	14
17	24	9	6	2	1	75	10	1	22	16	10	9.91	49	1
17	24	9	6	2	1	75	10	1	22	16	10	660.25	49	14
17	24	9	6	2	1	75	10	1	23	6	7	576.84	49	12
17	24	9	6	2	1	75	10	1	24	16	4	0	-1	16
17	24	9	6	2	1	75	10	1	25	6	8	607.88	49	13
17	24	9	6	2	1	75	10	1	26	16	3	8.32	49	1
17	24	9	6	2	1	75	10	1	27	6	6	676.92	49	14
17	24	9	6	2	1	75	10	1	28	6	1	27.23	49	1
17	24	9	6	2	1	75	10	1	28	6	1	657.32	49	14
17	24	9	6	2	1	75	10	1	29	6	6	7.4	49	1
17	24	9	6	2	1	75	10	1	29	6	6	657.52	49	14
17	24	9	6	2	1	75	10	1	30	6	1	8.5	49	1
17	24	9	6	2	1	75	10	1	30	6	1	672.86	49	14
17	24	9	6	2	1	75	10	1	31	16	6	7.38	49	1
17	24	9	6	2	1	75	10	1	32	6	9	515.43	49	11
17	24	9	6	2	1	75	10	1	33	6	8	587.05	49	12
17	24	9	6	2	1	75	10	1	34	6	10	9.91	49	1
17	24	9	6	2	1	75	10	1	34	6	10	659.99	49	14
17	24	9	6	2	1	75	10	1	35	16	8	12.97	49	1
17	24	9	6	2	1	75	10	1	35	16	8	689.35	49	14
17	24	9	6	2	1	75	10	1	36	6	7	10.35	49	1
17	24	9	6	2	1	75	10	1	36	6	7	775.8	49	16
17	24	9	6	2	1	75	10	1	37	6	4	22.8	49	1
17	24	9	6	2	1	75	10	1	37	6	4	720.18	49	15
17	24	9	6	2	1	75	10	1	38	6	2	19.97	49	1
17	24	9	6	2	1	75	10	1	39	6	5	84.56	49	2
17	24	9	6	2	1	75	10	1	39	6	5	776.03	49	16
17	24	9	6	2	1	75	10	1	40	16	7	9.85	49	1
17	24	9	6	2	1	75	10	1	41	16	4	359.48	49	8
17	24	9	6	2	1	75	10	1	42	6	3	559.29	49	12
17	24	9	6	2	1	75	10	1	43	6	7	489.52	49	10
17	24	9	6	2	1	75	10	1	44	6	5	507.84	49	11
17	24	9	6	2	1	75	10	1	45	6	2	510.83	49	11
17	24	9	6	2	1	75	10	1	46	6	1	492.85	49	10
17	24	9	6	2	1	75	10	1	46	6	1	709.29	49	15
17	24	9	6	2	1	75	10	1	47	6	9	460.86	49	10
17	24	9	6	2	1	75	10	1	48	6	4	509.41	49	11
17	24	9	6	2	1	75	10	1	49	16	5	465.95	49	10
17	24	9	6	2	1	75	10	1	50	16	1	0	-1	16
17	24	9	6	2	1	75	10	1	51	6	10	0	-1	16
17	24	9	6	2	1	75	10	1	52	6	6	28.84	49	1
17	24	9	6	2	1	75	10	1	53	6	3	7.76	49	1
17	24	9	6	2	1	75	10	1	54	6	8	8.48	49	1
17	24	9	6	2	1	75	10	1	54	6	8	725.75	49	15
17	24	9	6	2	1	75	10	1	55	16	2	7.55	49	1
17	24	9	6	2	1	75	10	1	56	6	2	527.06	49	11
17	24	9	6	2	1	75	10	1	56	6	2	757.34	49	16
17	24	9	6	2	1	75	10	1	57	6	10	380.76	49	8
17	24	9	6	2	1	75	10	1	57	6	10	607.72	49	13
17	24	9	6	2	1	75	10	1	58	6	9	543.07	49	11
17	24	9	6	2	1	75	10	1	59	16	10	0	-1	16
17	24	9	6	2	1	75	10	1	60	6	1	516.23	49	11
17	24	9	6	2	1	75	10	1	60	6	1	759.79	49	16
17	24	9	6	2	1	75	10	1	61	6	8	417.22	49	9
17	24	9	6	2	1	75	10	1	61	6	8	660.41	49	14
17	24	9	6	2	1	75	10	1	62	6	3	586.16	49	12
17	24	9	6	2	1	75	10	1	62	6	3	792.44	49	16
17	24	9	6	2	1	75	10	1	63	6	6	611.21	49	13
17	24	9	6	2	1	75	10	1	64	6	5	10.59	49	1
17	24	9	6	2	1	75	10	1	64	6	5	657.85	49	14
17	24	9	6	2	1	75	10	1	65	6	7	11.12	49	1
17	24	9	6	2	1	75	10	1	65	6	7	615.26	49	13
17	24	9	6	2	1	75	10	1	66	6	4	617.27	49	13
17	24	9	6	2	1	75	10	1	67	6	7	7.58	49	1
17	24	9	6	2	1	75	10	1	67	6	7	609.69	49	13
17	24	9	6	2	1	75	10	1	68	6	4	757.27	49	16
17	24	9	6	2	1	75	10	1	69	6	10	7.41	49	1
17	24	9	6	2	1	75	10	1	69	6	10	595.2	49	12
17	24	9	6	2	1	75	10	1	70	6	2	562.58	49	12
17	24	9	6	2	1	75	10	1	71	6	1	569.58	49	12
17	24	9	6	2	1	75	10	1	72	6	9	12.29	49	1
17	24	9	6	2	1	75	10	1	72	6	9	560.92	49	12
17	24	9	6	2	1	75	10	1	72	6	9	781.72	49	16
17	24	9	6	2	1	75	10	1	73	6	5	561.45	49	12
17	24	9	6	2	1	75	10	1	73	6	5	762.02	49	16
17	24	9	6	2	1	75	10	1	74	6	6	585.56	49	12
17	24	9	6	2	1	75	10	1	75	6	3	621.13	49	13
17	24	9	6	2	1	75	10	1	76	6	8	8.81	49	1
17	24	9	6	2	1	75	10	1	76	6	8	721.33	49	15
17	24	9	6	2	1	75	10	1	77	6	5	8.38	49	1
17	24	9	6	2	1	75	10	1	77	6	5	689.58	49	14
17	24	9	6	2	1	75	10	1	78	16	9	10.49	49	1
17	24	9	6	2	1	75	10	1	78	16	9	707.58	49	15
17	24	9	6	2	1	75	10	1	79	16	6	7.44	49	1
17	24	9	6	2	1	75	10	1	80	16	3	0	-1	16
17	24	9	6	2	1	75	10	1	81	16	8	0	-1	16
17	24	9	6	2	1	75	10	1	82	6	4	557.62	49	12
17	24	9	6	2	1	75	10	1	83	16	7	507.5	49	11
17	24	9	6	2	1	75	10	1	84	6	10	710.52	49	15
17	24	9	6	2	1	75	10	1	85	6	2	10.14	49	1
17	24	9	6	2	1	75	10	1	85	6	2	559.51	49	12
17	24	9	6	2	1	75	10	1	86	6	9	462.46	49	10
17	24	9	6	2	1	75	10	1	87	6	7	487.23	49	10
17	24	9	6	2	1	75	10	1	88	6	8	511.81	49	11
17	24	9	6	2	1	75	10	1	88	6	8	711.9	49	15
17	24	9	6	2	1	75	10	1	89	6	6	486.34	49	10
17	24	9	6	2	1	75	10	1	89	6	6	713.42	49	15
17	24	9	6	2	1	75	10	1	90	6	3	574.7	49	12
17	24	9	6	2	1	75	10	1	91	6	1	495.77	49	10
17	24	9	6	2	1	75	10	1	91	6	1	707.43	49	15
17	24	9	6	2	1	75	10	1	92	6	7	657.59	49	14
17	24	9	6	2	1	75	10	1	93	16	9	10.68	49	1
17	24	9	6	2	1	75	10	1	94	6	5	619.91	49	13
17	24	9	6	2	1	75	10	1	95	6	2	7.09	49	1
17	24	9	6	2	1	75	10	1	95	6	2	578.62	49	12
17	24	9	6	2	1	75	10	1	96	6	1	743.95	49	15
17	24	9	6	2	1	75	10	1	97	6	9	8.52	49	1
17	24	9	6	2	1	75	10	1	97	6	9	585.02	49	12
17	24	9	6	2	1	75	10	1	98	16	2	10.33	49	1
17	24	9	6	2	1	75	10	1	99	6	4	373.68	49	8
17	24	9	6	2	1	75	10	1	99	6	4	611.82	49	13
17	24	9	6	2	1	75	10	1	100	16	4	0	-1	16
17	24	9	6	2	1	75	10	1	101	6	10	612.38	49	13
17	24	9	6	2	1	75	10	1	102	6	3	8.64	49	1
17	24	9	6	2	1	75	10	1	102	6	3	432.61	49	9
17	24	9	6	2	1	75	10	1	102	6	3	658.85	49	14
17	24	9	6	2	1	75	10	1	103	6	6	510.07	49	11
17	24	9	6	2	1	75	10	1	103	6	6	710.3	49	15
17	24	9	6	2	1	75	10	1	104	6	8	661.12	49	14
17	24	9	6	2	1	75	10	1	105	6	5	7.62	49	1
17	24	9	6	2	1	75	10	1	105	6	5	613.2	49	13
17	24	9	6	2	1	75	10	1	106	6	9	7.28	49	1
17	24	9	6	2	1	75	10	1	106	6	9	635.47	49	13
17	24	9	6	2	1	75	10	1	107	16	10	7.17	49	1
17	24	9	6	2	1	75	10	1	108	6	4	8.32	49	1
17	24	9	6	2	1	75	10	1	108	6	4	261.15	49	6
17	24	9	6	2	1	75	10	1	108	6	4	744.48	49	15
17	24	9	6	2	1	75	10	1	109	16	1	7.95	49	1
17	24	9	6	2	1	75	10	1	109	16	1	209.89	49	5
17	24	9	6	2	1	75	10	1	110	6	2	0	-1	16
17	24	9	6	2	1	75	10	1	111	6	10	179.24	49	4
17	24	9	6	2	1	75	10	1	112	6	6	211.66	49	5
17	24	9	6	2	1	75	10	1	112	6	6	474.86	49	10
17	24	9	6	2	1	75	10	1	113	16	5	386.68	49	8
17	24	9	6	2	1	75	10	1	113	16	5	609.48	49	13
17	24	9	6	2	1	75	10	1	114	6	3	617.61	49	13
17	24	9	6	2	1	75	10	1	115	6	7	8.24	49	1
17	24	9	6	2	1	75	10	1	115	6	7	610.08	49	13
17	24	9	6	2	1	75	10	1	116	16	3	7.6	49	1
17	24	9	6	2	1	75	10	1	116	16	3	707.37	49	15
17	24	9	6	2	1	75	10	1	117	16	6	7.63	49	1
17	24	9	6	2	1	75	10	1	118	16	8	230.49	49	5
17	24	9	6	2	1	75	10	1	119	6	8	0	-1	16
17	24	9	6	2	1	75	10	1	120	6	1	58.95	49	2
17	24	9	6	2	1	75	10	1	120	6	1	260.51	49	6
17	24	9	6	2	1	75	10	1	120	6	1	757.86	49	16
17	24	9	6	2	1	75	10	1	121	16	5	7.37	49	1
17	24	9	6	2	1	75	10	1	122	6	5	488.63	49	10
17	24	9	6	2	1	75	10	1	122	6	5	729.84	49	15
17	24	9	6	2	1	75	10	1	123	6	2	463.03	49	10
17	24	9	6	2	1	75	10	1	123	6	2	709.49	49	15
17	24	9	6	2	1	75	10	1	124	16	4	459.92	49	10
17	24	9	6	2	1	75	10	1	124	16	4	660.38	49	14
17	24	9	6	2	1	75	10	1	125	16	9	659.89	49	14
17	24	9	6	2	1	75	10	1	126	16	10	10.02	49	1
17	24	9	6	2	1	75	10	1	127	6	10	442.91	49	9
17	24	9	6	2	1	75	10	1	128	16	2	507.56	49	11
17	24	9	6	2	1	75	10	1	128	16	2	707.87	49	15
17	24	9	6	2	1	75	10	1	129	16	6	795.73	49	16
17	24	9	6	2	1	75	10	1	130	16	8	7.69	49	1
17	24	9	6	2	1	75	10	1	131	16	7	0	-1	16
17	24	9	6	2	1	75	10	1	132	6	9	590.82	49	12
17	24	9	6	2	1	75	10	1	133	6	4	410.05	49	9
17	24	9	6	2	1	75	10	1	134	6	8	643.39	49	13
17	24	9	6	2	1	75	10	1	135	6	7	7.76	49	1
17	24	9	6	2	1	75	10	1	135	6	7	491.71	49	10
17	24	9	6	2	1	75	10	1	135	6	7	709.95	49	15
17	24	9	6	2	1	75	10	1	136	6	3	442.49	49	9
17	24	9	6	2	1	75	10	1	137	6	6	459.69	49	10
17	24	9	6	2	1	75	10	1	138	6	1	392.66	49	8
17	24	9	6	2	1	75	10	1	138	6	1	610.03	49	13
17	24	9	6	2	1	75	10	1	139	16	3	424.78	49	9
17	24	9	6	2	1	75	10	1	139	16	3	660.66	49	14
17	24	9	6	2	1	75	10	1	140	16	1	0	-1	16
17	24	9	6	2	1	75	10	1	141	16	6	0	-1	16
17	24	9	6	2	1	75	10	1	142	6	7	476.86	49	10
17	24	9	6	2	1	75	10	1	142	6	7	710.29	49	15
17	24	9	6	2	1	75	10	1	143	6	2	492.49	49	10
17	24	9	6	2	1	75	10	1	143	6	2	707.24	49	15
17	24	9	6	2	1	75	10	1	144	16	10	459.63	49	10
17	24	9	6	2	1	75	10	1	145	6	10	726.83	49	15
17	24	9	6	2	1	75	10	1	146	6	4	8.64	49	1
17	24	9	6	2	1	75	10	1	146	6	4	559.9	49	12
17	24	9	6	2	1	75	10	1	146	6	4	760.23	49	16
17	24	9	6	2	1	75	10	1	147	6	5	384.6	49	8
17	24	9	6	2	1	75	10	1	147	6	5	610	49	13
17	24	9	6	2	1	75	10	1	148	6	1	241.35	49	5
17	24	9	6	2	1	75	10	1	148	6	1	457.5	49	10
17	24	9	6	2	1	75	10	1	149	6	9	342.8	49	7
17	24	9	6	2	1	75	10	1	150	6	6	310.02	49	7
17	24	9	6	2	1	75	10	1	150	6	6	510.94	49	11
17	24	9	6	2	1	75	10	1	151	6	3	212.2	49	5
17	24	9	6	2	1	75	10	1	151	6	3	462.22	49	10
17	24	9	6	2	1	75	10	1	152	6	8	370.86	49	8
17	24	9	6	2	1	75	10	1	152	6	8	610.39	49	13
17	24	9	6	2	1	75	10	1	153	6	7	460.68	49	10
17	24	9	6	2	1	75	10	1	154	6	9	427.5	49	9
17	24	9	6	2	1	75	10	1	155	6	4	308.58	49	7
17	24	9	6	2	1	75	10	1	155	6	4	557.12	49	12
17	24	9	6	2	1	75	10	1	156	6	2	260.54	49	6
17	24	9	6	2	1	75	10	1	157	6	10	112.05	49	3
17	24	9	6	2	1	75	10	1	157	6	10	357.04	49	8
17	24	9	6	2	1	75	10	1	158	6	5	58.92	49	2
17	24	9	6	2	1	75	10	1	158	6	5	259.42	49	6
17	24	9	6	2	1	75	10	1	159	6	1	10.88	49	1
17	24	9	6	2	1	75	10	1	159	6	1	259.24	49	6
17	24	9	6	2	1	75	10	1	159	6	1	683.92	49	14
17	24	9	6	2	1	75	10	1	160	6	3	7.63	49	1
17	24	9	6	2	1	75	10	1	160	6	3	607	49	13
17	24	9	6	2	1	75	10	1	161	16	4	8.17	49	1
17	24	9	6	2	1	75	10	1	162	6	6	637.69	49	13
17	24	9	6	2	1	75	10	1	163	16	8	9.82	49	1
17	24	9	6	2	1	75	10	1	164	6	8	662.64	49	14
17	24	9	6	2	1	75	10	1	165	6	6	9.91	49	1
17	24	9	6	2	1	75	10	1	165	6	6	590	49	12
17	24	9	6	2	1	75	10	1	166	16	7	561	49	12
17	24	9	6	2	1	75	10	1	167	6	4	560.23	49	12
17	24	9	6	2	1	75	10	1	167	6	4	760.43	49	16
17	24	9	6	2	1	75	10	1	168	6	5	490.8	49	10
17	24	9	6	2	1	75	10	1	169	6	10	459.28	49	10
17	24	9	6	2	1	75	10	1	170	6	9	396.11	49	8
17	24	9	6	2	1	75	10	1	171	6	7	444.81	49	9
17	24	9	6	2	1	75	10	1	172	16	5	468.86	49	10
17	24	9	6	2	1	75	10	1	173	6	2	0	-1	16
17	24	9	6	2	1	75	10	1	174	16	2	10.92	49	1
17	24	9	6	2	1	75	10	1	174	16	2	695.23	49	14
17	24	9	6	2	1	75	10	1	175	6	1	9.92	49	1
17	24	9	6	2	1	75	10	1	175	6	1	676.97	49	14
17	24	9	6	2	1	75	10	1	176	6	8	12.11	49	1
17	24	9	6	2	1	75	10	1	176	6	8	688.79	49	14
17	24	9	6	2	1	75	10	1	177	6	3	10.86	49	1
17	24	9	6	2	1	75	10	1	177	6	3	674.62	49	14
17	24	9	6	2	1	75	10	1	178	6	5	9.23	49	1
17	24	9	6	2	1	75	10	1	178	6	5	640.11	49	13
17	24	9	6	2	1	75	10	1	179	6	4	8.67	49	1
17	24	9	6	2	1	75	10	1	179	6	4	580.44	49	12
17	24	9	6	2	1	75	10	1	180	6	2	7.62	49	1
17	24	9	6	2	1	75	10	1	180	6	2	660.09	49	14
17	24	9	6	2	1	75	10	1	181	6	10	8.41	49	1
17	24	9	6	2	1	75	10	1	181	6	10	593.43	49	12
17	24	9	6	2	1	75	10	1	182	6	9	7.36	49	1
17	24	9	6	2	1	75	10	1	182	6	9	571.64	49	12
17	24	9	6	2	1	75	10	1	183	6	6	557.22	49	12
17	24	9	6	2	1	75	10	1	183	6	6	758.93	49	16
17	24	9	6	2	1	75	10	1	184	16	9	0	-1	16
17	24	9	6	2	1	75	10	1	185	16	1	0	-1	16
17	24	9	6	2	1	75	10	1	186	6	8	0	-1	16
17	24	9	6	2	1	75	10	1	187	6	7	137.31	49	3
17	24	9	6	2	1	75	10	1	188	6	3	0	-1	16
17	24	9	6	2	1	75	10	1	189	6	1	0	-1	16
17	24	9	6	2	1	75	10	1	190	6	6	257.95	49	6
17	24	9	6	2	1	75	10	1	190	6	6	758.13	49	16
17	24	9	6	2	1	75	10	1	191	16	3	10.16	49	1
17	24	9	6	2	1	75	10	1	192	6	4	335.27	49	7
17	24	9	6	2	1	75	10	1	193	6	1	510.75	49	11
17	24	9	6	2	1	75	10	1	194	6	2	390.13	49	8
17	24	9	6	2	1	75	10	1	194	6	2	609.36	49	13
17	24	9	6	2	1	75	10	1	195	16	6	322.49	49	7
17	24	9	6	2	1	75	10	1	195	16	6	557.53	49	12
17	24	9	6	2	1	75	10	1	196	6	5	507.9	49	11
17	24	9	6	2	1	75	10	1	196	6	5	708.74	49	15
17	24	9	6	2	1	75	10	1	197	6	9	390.65	49	8
17	24	9	6	2	1	75	10	1	198	16	8	359.69	49	8
17	24	9	6	2	1	75	10	1	199	16	10	0	-1	16
17	24	9	6	2	1	75	10	1	200	6	10	616.45	49	13
17	24	9	6	2	1	75	10	1	201	6	7	11.44	49	1
17	24	9	6	2	1	75	10	1	201	6	7	432.91	49	9
17	24	9	6	2	1	75	10	1	201	6	7	658.63	49	14
17	24	9	6	2	1	75	10	1	202	6	8	410.62	49	9
17	24	9	6	2	1	75	10	1	203	16	2	409.34	49	9
17	24	9	6	2	1	75	10	1	203	16	2	657.11	49	14
17	24	9	6	2	1	75	10	1	204	6	3	719.64	49	15
17	24	9	6	2	1	75	10	1	205	16	7	7.96	49	1
17	24	9	6	2	1	75	10	1	205	16	7	607.26	49	13
17	24	9	6	2	1	75	10	1	206	6	7	11.43	49	1
17	24	9	6	2	1	75	10	1	206	6	7	687.66	49	14
17	24	9	6	2	1	75	10	1	207	6	1	10.07	49	1
17	24	9	6	2	1	75	10	1	207	6	1	760.35	49	16
17	24	9	6	2	1	75	10	1	208	6	5	7.37	49	1
17	24	9	6	2	1	75	10	1	208	6	5	608.13	49	13
17	24	9	6	2	1	75	10	1	209	16	1	7.61	49	1
17	24	9	6	2	1	75	10	1	210	6	10	365.49	49	8
17	24	9	6	2	1	75	10	1	211	6	4	359.74	49	8
17	24	9	6	2	1	75	10	1	211	6	4	560.1	49	12
17	24	9	6	2	1	75	10	1	212	16	4	316.65	49	7
17	24	9	6	2	1	75	10	1	213	6	2	0	-1	16
17	24	9	6	2	1	75	10	1	214	6	9	60.41	49	2
17	24	9	6	2	1	75	10	1	214	6	9	708.28	49	15
17	24	9	6	2	1	75	10	1	215	16	5	11.44	49	1
17	24	9	6	2	1	75	10	1	216	6	3	372.76	49	8
17	24	9	6	2	1	75	10	1	217	6	6	384.45	49	8
17	24	9	6	2	1	75	10	1	218	6	8	419.22	49	9
17	24	9	6	2	1	75	10	1	219	6	6	484.12	49	10
17	24	9	6	2	1	75	10	1	219	6	6	707.51	49	15
17	24	9	6	2	1	75	10	1	220	6	4	589.14	49	12
17	24	9	6	2	1	75	10	1	221	16	9	7.68	49	1
17	24	9	6	2	1	75	10	1	222	6	9	623.4	49	13
17	24	9	6	2	1	75	10	1	223	6	10	12.77	49	1
17	24	9	6	2	1	75	10	1	223	6	10	525.38	49	11
17	24	9	6	2	1	75	10	1	223	6	10	762.6	49	16
17	24	9	6	2	1	75	10	1	224	6	1	587.71	49	12
17	24	9	6	2	1	75	10	1	225	16	3	12.19	49	1
17	24	9	6	2	1	75	10	1	226	6	2	438.71	49	9
17	24	9	6	2	1	75	10	1	226	6	2	659.66	49	14
17	24	9	6	2	1	75	10	1	227	6	7	516.79	49	11
17	24	9	6	2	1	75	10	1	228	6	5	520.44	49	11
17	24	9	6	2	1	75	10	1	229	6	8	357.42	49	8
17	24	9	6	2	1	75	10	1	229	6	8	557.51	49	12
17	24	9	6	2	1	75	10	1	230	6	3	370.82	49	8
17	24	9	6	2	1	75	10	1	230	6	3	607.27	49	13
17	24	9	6	2	1	75	10	1	231	6	6	342.61	49	7
17	24	9	6	2	1	75	10	1	231	6	6	557.32	49	12
17	24	9	6	2	1	75	10	1	232	16	6	217.42	49	5
17	24	9	6	2	1	75	10	1	232	16	6	459.66	49	10
17	24	9	6	2	1	75	10	1	233	16	7	609.14	49	13
17	24	9	6	2	1	75	10	1	234	6	5	516.44	49	11
17	24	9	6	2	1	75	10	1	235	6	7	538.3	49	11
17	24	9	6	2	1	75	10	1	235	6	7	757.24	49	16
17	24	9	6	2	1	75	10	1	236	16	8	560.51	49	12
17	24	9	6	2	1	75	10	1	237	6	1	759.76	49	16
17	24	9	6	2	1	75	10	1	238	6	2	11.03	49	1
17	24	9	6	2	1	75	10	1	238	6	2	660.13	49	14
17	24	9	6	2	1	75	10	1	239	6	8	12.78	49	1
17	24	9	6	2	1	75	10	1	239	6	8	579.25	49	12
17	24	9	6	2	1	75	10	1	240	6	4	528.7	49	11
17	24	9	6	2	1	75	10	1	240	6	4	760.85	49	16
17	24	9	6	2	1	75	10	1	241	6	9	607.9	49	13
17	24	9	6	2	1	75	10	1	242	6	10	7.79	49	1
17	24	9	6	2	1	75	10	1	242	6	10	609.5	49	13
17	24	9	6	2	1	75	10	1	243	6	3	7.5	49	1
17	24	9	6	2	1	75	10	1	243	6	3	539.28	49	11
17	24	9	6	2	1	75	10	1	243	6	3	757.59	49	16
17	24	9	6	2	1	75	10	1	244	16	5	7.52	49	1
17	24	9	6	2	1	75	10	1	245	6	7	660.6	49	14
17	24	9	6	2	1	75	10	1	246	6	10	10.08	49	1
17	24	9	6	2	1	75	10	1	246	6	10	459.85	49	10
17	24	9	6	2	1	75	10	1	246	6	10	709.87	49	15
17	24	9	6	2	1	75	10	1	247	6	4	7.63	49	1
17	24	9	6	2	1	75	10	1	247	6	4	457.78	49	10
17	24	9	6	2	1	75	10	1	247	6	4	657.97	49	14
17	24	9	6	2	1	75	10	1	248	6	2	566.29	49	12
17	24	9	6	2	1	75	10	1	249	6	5	12.38	49	1
17	24	9	6	2	1	75	10	1	249	6	5	459.61	49	10
17	24	9	6	2	1	75	10	1	249	6	5	659.85	49	14
17	24	9	6	2	1	75	10	1	250	16	2	362.06	49	8
17	24	9	6	2	1	75	10	1	250	16	2	610.09	49	13
17	24	9	6	2	1	75	10	1	251	16	1	0	-1	16
17	24	9	6	2	1	75	10	1	252	6	1	0	-1	16
17	24	9	6	2	1	75	10	1	253	16	4	64.15	49	2
17	24	9	6	2	1	75	10	1	253	16	4	557.8	49	12
17	24	9	6	2	1	75	10	1	254	6	9	514.06	49	11
17	24	9	6	2	1	75	10	1	255	6	6	538.15	49	11
17	24	9	6	2	1	75	10	1	256	6	3	431.93	49	9
17	24	9	6	2	1	75	10	1	257	6	8	663.98	49	14
17	24	9	6	2	1	75	10	1	258	6	6	7.43	49	1
17	24	9	6	2	1	75	10	1	258	6	6	558.17	49	12
17	24	9	6	2	1	75	10	1	259	6	2	567.89	49	12
17	24	9	6	2	1	75	10	1	260	6	7	546.02	49	11
17	24	9	6	2	1	75	10	1	261	16	9	486.95	49	10
17	24	9	6	2	1	75	10	1	262	6	8	680.53	49	14
17	24	9	6	2	1	75	10	1	263	6	5	11.53	49	1
17	24	9	6	2	1	75	10	1	263	6	5	517.61	49	11
17	24	9	6	2	1	75	10	1	264	6	9	417.77	49	9
17	24	9	6	2	1	75	10	1	265	16	10	0	-1	16
17	24	9	6	2	1	75	10	1	266	6	1	409	49	9
17	24	9	6	2	1	75	10	1	267	6	4	408.07	49	9
17	24	9	6	2	1	75	10	1	268	6	10	441.74	49	9
17	24	9	6	2	1	75	10	1	268	6	10	659.8	49	14
17	24	9	6	2	1	75	10	1	269	16	3	562.01	49	12
17	24	9	6	2	1	75	10	1	270	6	3	632.78	49	13
17	24	9	6	2	1	75	10	1	271	16	7	7.54	49	1
17	24	9	6	2	1	75	10	1	271	16	7	657.29	49	14
17	24	9	6	2	1	75	10	1	272	6	6	7.3	49	1
17	24	9	6	2	1	75	10	1	273	16	1	84.49	49	2
17	24	9	6	2	1	75	10	1	274	6	8	410.09	49	9
17	24	9	6	2	1	75	10	1	275	6	4	561.1	49	12
17	24	9	6	2	1	75	10	1	276	16	10	559.94	49	12
17	24	9	6	2	1	75	10	1	276	16	10	760.7	49	16
17	24	9	6	2	1	75	10	1	277	6	10	736.4	49	15
17	24	9	6	2	1	75	10	1	278	6	2	10.95	49	1
17	24	9	6	2	1	75	10	1	278	6	2	625.59	49	13
17	24	9	6	2	1	75	10	1	279	6	9	9.77	49	1
17	24	9	6	2	1	75	10	1	279	6	9	659.87	49	14
17	24	9	6	2	1	75	10	1	280	6	1	7.77	49	1
17	24	9	6	2	1	75	10	1	280	6	1	626.55	49	13
17	24	9	6	2	1	75	10	1	281	6	5	7.55	49	1
17	24	9	6	2	1	75	10	1	281	6	5	607.47	49	13
17	24	9	6	2	1	75	10	1	282	6	7	628.4	49	13
17	24	9	6	2	1	75	10	1	283	6	3	9.99	49	1
17	24	9	6	2	1	75	10	1	283	6	3	576.15	49	12
17	24	9	6	2	1	75	10	1	284	6	2	508.18	49	11
17	24	9	6	2	1	75	10	1	284	6	2	709.58	49	15
17	24	9	6	2	1	75	10	1	285	6	10	633.86	49	13
17	24	9	6	2	1	75	10	1	286	6	9	630.89	49	13
17	24	9	6	2	1	75	10	1	287	6	8	12.29	49	1
17	24	9	6	2	1	75	10	1	287	6	8	765.04	49	16
17	24	9	6	2	1	75	10	1	288	16	9	11.8	49	1
17	24	9	6	2	1	75	10	1	289	6	5	514.17	49	11
17	24	9	6	2	1	75	10	1	290	6	1	524.1	49	11
17	24	9	6	2	1	75	10	1	290	6	1	759.95	49	16
17	24	9	6	2	1	75	10	1	291	6	7	466.56	49	10
17	24	9	6	2	1	75	10	1	291	6	7	707.87	49	15
17	24	9	6	2	1	75	10	1	292	16	2	558.2	49	12
17	24	9	6	2	1	75	10	1	292	16	2	760.7	49	16
17	24	9	6	2	1	75	10	1	293	6	3	0	-1	16
17	24	9	6	2	1	75	10	1	294	6	6	26.51	49	1
17	24	9	6	2	1	75	10	1	294	6	6	657.74	49	14
17	24	9	6	2	1	75	10	1	295	6	4	7.71	49	1
17	24	9	6	2	1	75	10	1	295	6	4	636.55	49	13
17	24	9	6	2	1	75	10	1	296	16	5	7.45	49	1
17	24	9	6	2	1	75	10	1	297	16	4	335.15	49	7
17	24	9	6	2	1	75	10	1	298	6	2	610.36	49	13
17	24	9	6	2	1	75	10	1	299	6	9	469.5	49	10
17	24	9	6	2	1	75	10	1	299	6	9	709.7	49	15
17	24	9	6	2	1	75	10	1	300	6	10	559.78	49	12
17	24	9	6	2	1	75	10	1	301	16	6	560.34	49	12
17	24	9	6	2	1	75	10	1	302	6	1	563.71	49	12
17	24	9	6	2	1	75	10	1	303	6	8	710.78	49	15
17	24	9	6	2	1	75	10	1	304	16	3	8.48	49	1
17	24	9	6	2	1	75	10	1	304	16	3	507.74	49	11
17	24	9	6	2	1	75	10	1	305	6	6	466.69	49	10
17	24	9	6	2	1	75	10	1	306	16	8	688.87	49	14
17	24	9	6	2	1	75	10	1	307	6	7	10.49	49	1
17	24	9	6	2	1	75	10	1	308	6	3	367.29	49	8
17	24	9	6	2	1	75	10	1	309	16	7	331.87	49	7
17	24	9	6	2	1	75	10	1	310	16	1	466.98	49	10
17	24	9	6	2	1	75	10	1	311	6	5	657.79	49	14
17	24	9	6	2	1	75	10	1	312	6	4	10.25	49	1
17	24	9	6	2	1	75	10	1	312	6	4	530.06	49	11
17	24	9	6	2	1	75	10	1	313	6	7	460.15	49	10
17	24	9	6	2	1	75	10	1	314	16	9	430.22	49	9
17	24	9	6	2	1	75	10	1	315	6	9	361.34	49	8
17	24	9	6	2	1	75	10	1	315	6	9	562.48	49	12
17	24	9	6	2	1	75	10	1	316	16	4	458.98	49	10
17	24	9	6	2	1	75	10	1	317	6	2	634.05	49	13
17	24	9	6	2	1	75	10	1	318	6	4	10.04	49	1
17	24	9	6	2	1	75	10	1	318	6	4	509.18	49	11
17	24	9	6	2	1	75	10	1	318	6	4	710.65	49	15
17	24	9	6	2	1	75	10	1	319	16	5	0	-1	16
17	24	9	6	2	1	75	10	1	320	6	5	534.82	49	11
17	24	9	6	2	1	75	10	1	321	6	1	494.42	49	10
17	24	9	6	2	1	75	10	1	322	6	10	395.06	49	8
17	24	9	6	2	1	75	10	1	322	6	10	607.59	49	13
17	24	9	6	2	1	75	10	1	323	16	10	485.58	49	10
17	24	9	6	2	1	75	10	1	324	16	2	576.92	49	12
17	24	9	6	2	1	75	10	1	325	6	6	784.68	49	16
17	24	9	6	2	1	75	10	1	326	6	3	11.03	49	1
17	24	9	6	2	1	75	10	1	326	6	3	659.61	49	14
17	24	9	6	2	1	75	10	1	327	6	8	10.08	49	1
17	24	9	6	2	1	75	10	1	328	6	5	57.96	49	2
17	24	9	6	2	1	75	10	1	328	6	5	630.78	49	13
17	24	9	6	2	1	75	10	1	329	6	10	11.04	49	1
17	24	9	6	2	1	75	10	1	329	6	10	584.58	49	12
17	24	9	6	2	1	75	10	1	330	6	4	723.86	49	15
17	24	9	6	2	1	75	10	1	331	6	9	7.92	49	1
17	24	9	6	2	1	75	10	1	331	6	9	720.45	49	15
17	24	9	6	2	1	75	10	1	332	6	2	7.61	49	1
17	24	9	6	2	1	75	10	1	332	6	2	209.3	49	5
17	24	9	6	2	1	75	10	1	332	6	2	616.43	49	13
17	24	9	6	2	1	75	10	1	333	6	8	7.48	49	1
17	24	9	6	2	1	75	10	1	333	6	8	775.97	49	16
17	24	9	6	2	1	75	10	1	334	6	7	7.09	49	1
17	24	9	6	2	1	75	10	1	334	6	7	707.28	49	15
17	24	9	6	2	1	75	10	1	335	6	3	10.11	49	1
17	24	9	6	2	1	75	10	1	335	6	3	707.6	49	15
17	24	9	6	2	1	75	10	1	336	6	6	7.72	49	1
17	24	9	6	2	1	75	10	1	336	6	6	719.43	49	15
17	24	9	6	2	1	75	10	1	337	6	1	26.89	49	1
17	24	9	6	2	1	75	10	1	337	6	1	766.2	49	16
17	24	9	6	2	1	75	10	1	338	6	7	25.52	49	1
17	24	9	6	2	1	75	10	1	338	6	7	691.53	49	14
17	24	9	6	2	1	75	10	1	339	6	9	12.02	49	1
17	24	9	6	2	1	75	10	1	339	6	9	677.4	49	14
17	24	9	6	2	1	75	10	1	340	6	4	10.66	49	1
17	24	9	6	2	1	75	10	1	340	6	4	681.01	49	14
17	24	9	6	2	1	75	10	1	341	6	10	8.72	49	1
17	24	9	6	2	1	75	10	1	341	6	10	775.64	49	16
17	24	9	6	2	1	75	10	1	342	6	5	8.23	49	1
17	24	9	6	2	1	75	10	1	342	6	5	730.31	49	15
17	24	9	6	2	1	75	10	1	343	16	6	10.06	49	1
17	24	9	6	2	1	75	10	1	344	16	3	0	-1	16
17	24	9	6	2	1	75	10	1	345	16	8	0	-1	16
17	24	9	6	2	1	75	10	1	346	6	2	569.99	49	12
17	24	9	6	2	1	75	10	1	347	16	2	519.62	49	11
17	24	9	6	2	1	75	10	1	348	6	1	723.42	49	15
17	24	9	6	2	1	75	10	1	349	6	3	8.12	49	1
17	24	9	6	2	1	75	10	1	349	6	3	487.95	49	10
17	24	9	6	2	1	75	10	1	350	6	6	409.48	49	9
17	24	9	6	2	1	75	10	1	350	6	6	609.7	49	13
17	24	9	6	2	1	75	10	1	351	6	8	412.63	49	9
17	24	9	6	2	1	75	10	1	352	6	2	510.31	49	11
17	24	9	6	2	1	75	10	1	353	6	9	431.24	49	9
17	24	9	6	2	1	75	10	1	353	6	9	661.44	49	14
17	24	9	6	2	1	75	10	1	354	6	10	425.79	49	9
17	24	9	6	2	1	75	10	1	355	6	7	459.51	49	10
17	24	9	6	2	1	75	10	1	355	6	7	707.17	49	15
17	24	9	6	2	1	75	10	1	356	16	9	509.04	49	11
17	24	9	6	2	1	75	10	1	356	16	9	757.51	49	16
17	24	9	6	2	1	75	10	1	357	6	1	689.87	49	14
17	24	9	6	2	1	75	10	1	358	6	6	11.37	49	1
17	24	9	6	2	1	75	10	1	358	6	6	660.77	49	14
17	24	9	6	2	1	75	10	1	359	6	5	7.51	49	1
17	24	9	6	2	1	75	10	1	359	6	5	526.44	49	11
17	24	9	6	2	1	75	10	1	360	6	8	474.81	49	10
17	24	9	6	2	1	75	10	1	361	6	3	511.72	49	11
17	24	9	6	2	1	75	10	1	362	6	4	563.81	49	12
17	24	9	6	2	1	75	10	1	363	6	5	560.78	49	12
17	24	9	6	2	1	75	10	1	363	6	5	762.04	49	16
17	24	9	6	2	1	75	10	1	364	6	2	610.14	49	13
17	24	9	6	2	1	75	10	1	365	16	10	9.78	49	1
17	24	9	6	2	1	75	10	1	365	16	10	712.88	49	15
17	24	9	6	2	1	75	10	1	366	6	10	11.13	49	1
17	24	9	6	2	1	75	10	1	366	6	10	580.36	49	12
17	24	9	6	2	1	75	10	1	367	6	9	667.31	49	14
17	24	9	6	2	1	75	10	1	368	6	4	9.97	49	1
17	24	9	6	2	1	75	10	1	368	6	4	612.62	49	13
17	24	9	6	2	1	75	10	1	369	6	3	7.43	49	1
17	24	9	6	2	1	75	10	1	369	6	3	570.9	49	12
17	24	9	6	2	1	75	10	1	370	6	8	676.32	49	14
17	24	9	6	2	1	75	10	1	371	6	7	7.25	49	1
17	24	9	6	2	1	75	10	1	371	6	7	658.32	49	14
17	24	9	6	2	1	75	10	1	372	6	6	10.12	49	1
17	24	9	6	2	1	75	10	1	372	6	6	595.44	49	12
17	24	9	6	2	1	75	10	1	373	6	1	10.01	49	1
17	24	9	6	2	1	75	10	1	373	6	1	635.52	49	13
17	24	9	6	2	1	75	10	1	374	6	2	7.98	49	1
17	24	9	6	2	1	75	10	1	374	6	2	767.53	49	16
17	24	9	6	2	1	75	10	1	375	6	10	10.51	49	1
17	24	9	6	2	1	75	10	1	375	6	10	212.27	49	5
17	24	9	6	2	1	75	10	1	375	6	10	743.08	49	15
17	24	9	6	2	1	75	10	1	376	6	9	9.4	49	1
17	24	9	6	2	1	75	10	1	376	6	9	717.87	49	15
17	24	9	6	2	1	75	10	1	377	6	7	11.95	49	1
17	24	9	6	2	1	75	10	1	377	6	7	661.84	49	14
17	24	9	6	2	1	75	10	1	378	16	7	10.19	49	1
17	24	9	6	2	1	75	10	1	378	16	7	622.77	49	13
17	24	9	6	2	1	75	10	1	379	16	3	8.88	49	1
17	24	9	6	2	1	75	10	1	380	16	5	0	-1	16
17	24	9	6	2	1	75	10	1	381	6	5	577.02	49	12
17	24	9	6	2	1	75	10	1	382	16	6	508.02	49	11
17	24	9	6	2	1	75	10	1	383	6	8	607.25	49	13
17	24	9	6	2	1	75	10	1	384	6	1	8.13	49	1
17	24	9	6	2	1	75	10	1	384	6	1	545.32	49	11
17	24	9	6	2	1	75	10	1	385	6	6	623.86	49	13
17	24	9	6	2	1	75	10	1	386	6	3	7.36	49	1
17	24	9	6	2	1	75	10	1	386	6	3	624.7	49	13
17	24	9	6	2	1	75	10	1	387	16	8	10.32	49	1
17	24	9	6	2	1	75	10	1	388	6	4	512.9	49	11
17	24	9	6	2	1	75	10	1	389	6	7	386.76	49	8
17	24	9	6	2	1	75	10	1	389	6	7	612.91	49	13
17	24	9	6	2	1	75	10	1	390	6	1	433.77	49	9
17	24	9	6	2	1	75	10	1	390	6	1	660.08	49	14
17	24	9	6	2	1	75	10	1	391	6	2	558.7	49	12
17	24	9	6	2	1	75	10	1	391	6	2	760.81	49	16
17	24	9	6	2	1	75	10	1	392	6	5	608.07	49	13
17	24	9	6	2	1	75	10	1	393	16	1	7.84	49	1
17	24	9	6	2	1	75	10	1	393	16	1	689.05	49	14
17	24	9	6	2	1	75	10	1	394	6	10	7.62	49	1
17	24	9	6	2	1	75	10	1	394	6	10	768.79	49	16
17	24	9	6	2	1	75	10	1	395	16	4	41.96	49	1
17	24	9	6	2	1	75	10	1	396	6	4	562	49	12
17	24	9	6	2	1	75	10	1	397	6	9	620.69	49	13
17	24	9	6	2	1	75	10	1	398	6	6	7.44	49	1
17	24	9	6	2	1	75	10	1	398	6	6	524.27	49	11
17	24	9	6	2	1	75	10	1	398	6	6	759.4	49	16
17	24	9	6	2	1	75	10	1	399	6	3	590.12	49	12
17	24	9	6	2	1	75	10	1	400	6	8	789.41	49	16
17	24	9	6	2	1	75	10	1	401	16	5	10.96	49	1
17	24	9	6	2	1	75	10	1	402	6	6	476.23	49	10
17	24	9	6	2	1	75	10	1	402	6	6	710.64	49	15
17	24	9	6	2	1	75	10	1	403	16	9	0	-1	16
17	24	9	6	2	1	75	10	1	404	6	10	409.1	49	9
17	24	9	6	2	1	75	10	1	405	6	9	560.59	49	12
17	24	9	6	2	1	75	10	1	406	16	2	0	-1	16
17	24	9	6	2	1	75	10	1	407	16	10	507.5	49	11
17	24	9	6	2	1	75	10	1	408	6	5	610.21	49	13
17	24	9	6	2	1	75	10	1	409	16	4	7.54	49	1
17	24	9	6	2	1	75	10	1	409	16	4	462.23	49	10
17	24	9	6	2	1	75	10	1	410	16	6	467.31	49	10
17	24	9	6	2	1	75	10	1	411	6	7	762.07	49	16
17	24	9	6	2	1	75	10	1	412	16	7	28.16	49	1
17	24	9	6	2	1	75	10	1	413	6	4	509.65	49	11
17	24	9	6	2	1	75	10	1	413	6	4	709.68	49	15
17	24	9	6	2	1	75	10	1	414	16	8	532.65	49	11
17	24	9	6	2	1	75	10	1	415	6	2	612.68	49	13
17	24	9	6	2	1	75	10	1	416	6	1	574.02	49	12
17	24	9	6	2	1	75	10	1	417	6	8	630.66	49	13
17	24	9	6	2	1	75	10	1	418	6	3	7.66	49	1
17	24	9	6	2	1	75	10	1	418	6	3	575.41	49	12
17	24	9	6	2	1	75	10	1	419	6	2	509.48	49	11
17	24	9	6	2	1	75	10	1	420	6	10	560.43	49	12
17	24	9	6	2	1	75	10	1	421	16	3	0	-1	16
17	24	9	6	2	1	75	10	1	422	6	9	521.11	49	11
17	24	9	6	2	1	75	10	1	423	16	1	0	-1	16
17	24	9	6	2	1	75	10	1	424	6	7	664.92	49	14
17	24	9	6	2	1	75	10	1	425	6	6	11.59	49	1
17	24	9	6	2	1	75	10	1	426	16	6	60	49	2
17	24	9	6	2	1	75	10	1	427	6	5	410.29	49	9
17	24	9	6	2	1	75	10	1	428	16	7	0	-1	16
17	24	9	6	2	1	75	10	1	429	6	8	512.49	49	11
17	24	9	6	2	1	75	10	1	430	6	1	558.76	49	12
17	24	9	6	2	1	75	10	1	430	6	1	761.19	49	16
17	24	9	6	2	1	75	10	1	431	16	1	0	-1	16
17	24	9	6	2	1	75	10	1	432	6	3	494.32	49	10
17	24	9	6	2	1	75	10	1	432	6	3	707.16	49	15
17	24	9	6	2	1	75	10	1	433	6	4	458.11	49	10
17	24	9	6	2	1	75	10	1	433	6	4	659.83	49	14
17	24	9	6	2	1	75	10	1	434	6	6	557.34	49	12
17	24	9	6	2	1	75	10	1	435	6	1	591.3	49	12
17	24	9	6	2	1	75	10	1	436	6	4	610.36	49	13
17	24	9	6	2	1	75	10	1	437	6	10	9.84	49	1
17	24	9	6	2	1	75	10	1	437	6	10	666.91	49	14
17	24	9	6	2	1	75	10	1	438	6	5	8.19	49	1
17	24	9	6	2	1	75	10	1	438	6	5	708.85	49	15
17	24	9	6	2	1	75	10	1	439	16	10	10.03	49	1
17	24	9	6	2	1	75	10	1	440	6	7	659.21	49	14
17	24	9	6	2	1	75	10	1	441	6	2	11.93	49	1
17	24	9	6	2	1	75	10	1	441	6	2	666.3	49	14
17	24	9	6	2	1	75	10	1	442	6	9	10.22	49	1
17	24	9	6	2	1	75	10	1	442	6	9	611.58	49	13
17	24	9	6	2	1	75	10	1	443	6	8	760.45	49	16
17	24	9	6	2	1	75	10	1	444	6	3	8.32	49	1
17	24	9	6	2	1	75	10	1	445	6	5	27.56	49	1
17	24	9	6	2	1	75	10	1	445	6	5	256.83	49	6
17	24	9	6	2	1	75	10	1	445	6	5	659.94	49	14
17	24	9	6	2	1	75	10	1	446	6	4	10.19	49	1
17	24	9	6	2	1	75	10	1	446	6	4	611.92	49	13
17	24	9	6	2	1	75	10	1	447	6	9	7.95	49	1
17	24	9	6	2	1	75	10	1	447	6	9	557.55	49	12
17	24	9	6	2	1	75	10	1	448	6	2	8.54	49	1
17	24	9	6	2	1	75	10	1	448	6	2	209.14	49	5
17	24	9	6	2	1	75	10	1	449	6	10	280.83	49	6
17	24	9	6	2	1	75	10	1	450	6	8	11.72	49	1
17	24	9	6	2	1	75	10	1	450	6	8	773.27	49	16
