SubjectNum	Age	Gender	PressedTask	Block Type	Block Repeat Num	Response Rate	Onset	Block	Trial	ImgType	ImgNum	RT	PressedC	FrameC
17	24	9	6	2	1	75	10	1	1	6	5	797.91	49	15
17	24	9	6	2	1	75	10	1	2	6	10	12.41	49	1
17	24	9	6	2	1	75	10	1	2	6	10	664.14	49	14
17	24	9	6	2	1	75	10	1	3	6	4	28.06	49	1
17	24	9	6	2	1	75	10	1	3	6	4	635.19	49	13
17	24	9	6	2	1	75	10	1	4	6	9	675.43	49	14
17	24	9	6	2	1	75	10	1	5	16	7	7.29	49	1
17	24	9	6	2	1	75	10	1	6	6	2	475.15	49	10
17	24	9	6	2	1	75	10	1	7	6	3	514.29	49	11
17	24	9	6	2	1	75	10	1	7	6	3	757.61	49	16
17	24	9	6	2	1	75	10	1	8	16	9	425.46	49	9
17	24	9	6	2	1	75	10	1	8	16	9	659.73	49	14
17	24	9	6	2	1	75	10	1	9	6	8	609.58	49	13
17	24	9	6	2	1	75	10	1	10	16	2	0	-1	16
17	24	9	6	2	1	75	10	1	11	6	7	667.06	49	14
17	24	9	6	2	1	75	10	1	12	6	6	11.37	49	1
17	24	9	6	2	1	75	10	1	12	6	6	643.42	49	13
17	24	9	6	2	1	75	10	1	13	6	1	17.57	49	1
17	24	9	6	2	1	75	10	1	13	6	1	740.23	49	15
17	24	9	6	2	1	75	10	1	14	16	5	7.54	49	1
17	24	9	6	2	1	75	10	1	15	6	5	420.36	49	9
17	24	9	6	2	1	75	10	1	16	6	2	407.22	49	9
17	24	9	6	2	1	75	10	1	17	6	4	429.38	49	9
17	24	9	6	2	1	75	10	1	18	6	9	485.68	49	10
17	24	9	6	2	1	75	10	1	19	6	10	512.94	49	11
17	24	9	6	2	1	75	10	1	20	16	1	460.13	49	10
17	24	9	6	2	1	75	10	1	21	6	3	391.26	49	8
17	24	9	6	2	1	75	10	1	22	16	10	327.42	49	7
17	24	9	6	2	1	75	10	1	23	6	7	211.77	49	5
17	24	9	6	2	1	75	10	1	24	16	4	319.4	49	7
17	24	9	6	2	1	75	10	1	25	6	8	484.43	49	10
17	24	9	6	2	1	75	10	1	26	16	3	438.5	49	9
17	24	9	6	2	1	75	10	1	27	6	6	423.75	49	9
17	24	9	6	2	1	75	10	1	28	6	1	470.96	49	10
17	24	9	6	2	1	75	10	1	28	6	1	709.76	49	15
17	24	9	6	2	1	75	10	1	29	6	6	674.76	49	14
17	24	9	6	2	1	75	10	1	30	6	1	7.93	49	1
17	24	9	6	2	1	75	10	1	31	16	6	61.05	49	2
17	24	9	6	2	1	75	10	1	32	6	9	481.6	49	10
17	24	9	6	2	1	75	10	1	32	6	9	709.36	49	15
17	24	9	6	2	1	75	10	1	33	6	8	716.17	49	15
17	24	9	6	2	1	75	10	1	34	6	10	9.74	49	1
17	24	9	6	2	1	75	10	1	34	6	10	609.89	49	13
17	24	9	6	2	1	75	10	1	35	16	8	9.79	49	1
17	24	9	6	2	1	75	10	1	36	6	7	570.12	49	12
17	24	9	6	2	1	75	10	1	37	6	4	514.51	49	11
17	24	9	6	2	1	75	10	1	38	6	2	727.67	49	15
17	24	9	6	2	1	75	10	1	39	6	5	10.51	49	1
17	24	9	6	2	1	75	10	1	39	6	5	610.66	49	13
17	24	9	6	2	1	75	10	1	40	16	7	9.98	49	1
17	24	9	6	2	1	75	10	1	40	16	7	590.44	49	12
17	24	9	6	2	1	75	10	1	41	16	4	678.49	49	14
17	24	9	6	2	1	75	10	1	42	6	3	7.99	49	1
17	24	9	6	2	1	75	10	1	42	6	3	666.7	49	14
17	24	9	6	2	1	75	10	1	43	6	7	7.51	49	1
17	24	9	6	2	1	75	10	1	43	6	7	627.41	49	13
17	24	9	6	2	1	75	10	1	44	6	5	11.59	49	1
17	24	9	6	2	1	75	10	1	44	6	5	736.48	49	15
17	24	9	6	2	1	75	10	1	45	6	2	9.87	49	1
17	24	9	6	2	1	75	10	1	45	6	2	618.11	49	13
17	24	9	6	2	1	75	10	1	46	6	1	7.95	49	1
17	24	9	6	2	1	75	10	1	46	6	1	589.83	49	12
17	24	9	6	2	1	75	10	1	47	6	9	10	49	1
17	24	9	6	2	1	75	10	1	47	6	9	559.8	49	12
17	24	9	6	2	1	75	10	1	48	6	4	576.33	49	12
17	24	9	6	2	1	75	10	1	49	16	5	11.86	49	1
17	24	9	6	2	1	75	10	1	50	16	1	0	-1	16
17	24	9	6	2	1	75	10	1	51	6	10	0	-1	16
17	24	9	6	2	1	75	10	1	52	6	6	60.78	49	2
17	24	9	6	2	1	75	10	1	52	6	6	607.5	49	13
17	24	9	6	2	1	75	10	1	53	6	3	584.87	49	12
17	24	9	6	2	1	75	10	1	54	6	8	8.02	49	1
17	24	9	6	2	1	75	10	1	54	6	8	768.56	49	16
17	24	9	6	2	1	75	10	1	55	16	2	16.67	49	1
17	24	9	6	2	1	75	10	1	56	6	2	643.11	49	13
17	24	9	6	2	1	75	10	1	57	6	10	7.36	49	1
17	24	9	6	2	1	75	10	1	57	6	10	539.07	49	11
17	24	9	6	2	1	75	10	1	58	6	9	469	49	10
17	24	9	6	2	1	75	10	1	59	16	10	0	-1	16
17	24	9	6	2	1	75	10	1	60	6	1	612.72	49	13
17	24	9	6	2	1	75	10	1	61	6	8	12.54	49	1
17	24	9	6	2	1	75	10	1	61	6	8	512.02	49	11
17	24	9	6	2	1	75	10	1	61	6	8	712.86	49	15
17	24	9	6	2	1	75	10	1	62	6	3	488.01	49	10
17	24	9	6	2	1	75	10	1	62	6	3	713.8	49	15
17	24	9	6	2	1	75	10	1	63	6	6	665.23	49	14
17	24	9	6	2	1	75	10	1	64	6	5	10.63	49	1
17	24	9	6	2	1	75	10	1	64	6	5	558.32	49	12
17	24	9	6	2	1	75	10	1	64	6	5	758.38	49	16
17	24	9	6	2	1	75	10	1	65	6	7	594.06	49	12
17	24	9	6	2	1	75	10	1	66	6	4	568.48	49	12
17	24	9	6	2	1	75	10	1	67	6	7	787.32	49	16
17	24	9	6	2	1	75	10	1	68	6	4	9.98	49	1
17	24	9	6	2	1	75	10	1	68	6	4	685.2	49	14
17	24	9	6	2	1	75	10	1	69	6	10	7.58	49	1
17	24	9	6	2	1	75	10	1	69	6	10	681.17	49	14
17	24	9	6	2	1	75	10	1	70	6	2	7.72	49	1
17	24	9	6	2	1	75	10	1	71	6	1	108.48	49	3
17	24	9	6	2	1	75	10	1	71	6	1	736.96	49	15
17	24	9	6	2	1	75	10	1	72	6	9	10.07	49	1
17	24	9	6	2	1	75	10	1	72	6	9	761.65	49	16
17	24	9	6	2	1	75	10	1	73	6	5	11.81	49	1
17	24	9	6	2	1	75	10	1	73	6	5	578.55	49	12
17	24	9	6	2	1	75	10	1	74	6	6	10.58	49	1
17	24	9	6	2	1	75	10	1	74	6	6	637.62	49	13
17	24	9	6	2	1	75	10	1	75	6	3	9.06	49	1
17	24	9	6	2	1	75	10	1	75	6	3	711.36	49	15
17	24	9	6	2	1	75	10	1	76	6	8	11.98	49	1
17	24	9	6	2	1	75	10	1	77	6	5	10.11	49	1
17	24	9	6	2	1	75	10	1	77	6	5	758.97	49	16
17	24	9	6	2	1	75	10	1	78	16	9	7.55	49	1
17	24	9	6	2	1	75	10	1	79	16	6	690.69	49	14
17	24	9	6	2	1	75	10	1	80	16	3	7.31	49	1
17	24	9	6	2	1	75	10	1	81	16	8	0	-1	16
17	24	9	6	2	1	75	10	1	82	6	4	593.3	49	12
17	24	9	6	2	1	75	10	1	83	16	7	510.39	49	11
17	24	9	6	2	1	75	10	1	84	6	10	609.53	49	13
17	24	9	6	2	1	75	10	1	85	6	2	508.12	49	11
17	24	9	6	2	1	75	10	1	85	6	2	712.11	49	15
17	24	9	6	2	1	75	10	1	86	6	9	470.6	49	10
17	24	9	6	2	1	75	10	1	87	6	7	386.72	49	8
17	24	9	6	2	1	75	10	1	87	6	7	610.89	49	13
17	24	9	6	2	1	75	10	1	88	6	8	441.59	49	9
17	24	9	6	2	1	75	10	1	88	6	8	659.97	49	14
17	24	9	6	2	1	75	10	1	89	6	6	427.23	49	9
17	24	9	6	2	1	75	10	1	89	6	6	657.68	49	14
17	24	9	6	2	1	75	10	1	90	6	3	436.65	49	9
17	24	9	6	2	1	75	10	1	90	6	3	660.1	49	14
17	24	9	6	2	1	75	10	1	91	6	1	442.71	49	9
17	24	9	6	2	1	75	10	1	91	6	1	659.89	49	14
17	24	9	6	2	1	75	10	1	92	6	7	411.86	49	9
17	24	9	6	2	1	75	10	1	93	16	9	478.65	49	10
17	24	9	6	2	1	75	10	1	93	16	9	709.37	49	15
17	24	9	6	2	1	75	10	1	94	6	5	526.65	49	11
17	24	9	6	2	1	75	10	1	95	6	2	444.49	49	9
17	24	9	6	2	1	75	10	1	96	6	1	479.94	49	10
17	24	9	6	2	1	75	10	1	97	6	9	527.7	49	11
17	24	9	6	2	1	75	10	1	98	16	2	0	-1	16
17	24	9	6	2	1	75	10	1	99	6	4	529.49	49	11
17	24	9	6	2	1	75	10	1	100	16	4	711.72	49	15
17	24	9	6	2	1	75	10	1	101	6	10	8.16	49	1
17	24	9	6	2	1	75	10	1	102	6	3	357.76	49	8
17	24	9	6	2	1	75	10	1	102	6	3	558.59	49	12
17	24	9	6	2	1	75	10	1	103	6	6	409.77	49	9
17	24	9	6	2	1	75	10	1	104	6	8	428.53	49	9
17	24	9	6	2	1	75	10	1	104	6	8	657.03	49	14
17	24	9	6	2	1	75	10	1	105	6	5	469.31	49	10
17	24	9	6	2	1	75	10	1	105	6	5	710.21	49	15
17	24	9	6	2	1	75	10	1	106	6	9	481.13	49	10
17	24	9	6	2	1	75	10	1	106	6	9	709.99	49	15
17	24	9	6	2	1	75	10	1	107	16	10	0	-1	16
17	24	9	6	2	1	75	10	1	108	6	4	25.5	49	1
17	24	9	6	2	1	75	10	1	109	16	1	219.64	49	5
17	24	9	6	2	1	75	10	1	109	16	1	458.62	49	10
17	24	9	6	2	1	75	10	1	110	6	2	0	-1	16
17	24	9	6	2	1	75	10	1	111	6	10	59.99	49	2
17	24	9	6	2	1	75	10	1	111	6	10	491.19	49	10
17	24	9	6	2	1	75	10	1	111	6	10	709.84	49	15
17	24	9	6	2	1	75	10	1	112	6	6	372.35	49	8
17	24	9	6	2	1	75	10	1	113	16	5	415.16	49	9
17	24	9	6	2	1	75	10	1	113	16	5	659.23	49	14
17	24	9	6	2	1	75	10	1	114	6	3	568.08	49	12
17	24	9	6	2	1	75	10	1	115	6	7	494.28	49	10
17	24	9	6	2	1	75	10	1	115	6	7	710.05	49	15
17	24	9	6	2	1	75	10	1	116	16	3	514.12	49	11
17	24	9	6	2	1	75	10	1	117	16	6	707.58	49	15
17	24	9	6	2	1	75	10	1	118	16	8	7.39	49	1
17	24	9	6	2	1	75	10	1	119	6	8	737.99	49	15
17	24	9	6	2	1	75	10	1	120	6	1	7.8	49	1
17	24	9	6	2	1	75	10	1	120	6	1	610.3	49	13
17	24	9	6	2	1	75	10	1	121	16	5	8.27	49	1
17	24	9	6	2	1	75	10	1	122	6	5	359.79	49	8
17	24	9	6	2	1	75	10	1	122	6	5	560.04	49	12
17	24	9	6	2	1	75	10	1	123	6	2	465.26	49	10
17	24	9	6	2	1	75	10	1	124	16	4	366.76	49	8
17	24	9	6	2	1	75	10	1	125	16	9	689.29	49	14
17	24	9	6	2	1	75	10	1	126	16	10	9.29	49	1
17	24	9	6	2	1	75	10	1	127	6	10	429.72	49	9
17	24	9	6	2	1	75	10	1	128	16	2	473.22	49	10
17	24	9	6	2	1	75	10	1	129	16	6	0	-1	16
17	24	9	6	2	1	75	10	1	130	16	8	0	-1	16
17	24	9	6	2	1	75	10	1	131	16	7	0	-1	16
17	24	9	6	2	1	75	10	1	132	6	9	585.04	49	12
17	24	9	6	2	1	75	10	1	133	6	4	444.24	49	9
17	24	9	6	2	1	75	10	1	133	6	4	659.16	49	14
17	24	9	6	2	1	75	10	1	134	6	8	414.06	49	9
17	24	9	6	2	1	75	10	1	135	6	7	409.23	49	9
17	24	9	6	2	1	75	10	1	136	6	3	378.15	49	8
17	24	9	6	2	1	75	10	1	136	6	3	611.6	49	13
17	24	9	6	2	1	75	10	1	137	6	6	325.43	49	7
17	24	9	6	2	1	75	10	1	138	6	1	321.08	49	7
17	24	9	6	2	1	75	10	1	138	6	1	558.54	49	12
17	24	9	6	2	1	75	10	1	139	16	3	370.64	49	8
17	24	9	6	2	1	75	10	1	140	16	1	0	-1	16
17	24	9	6	2	1	75	10	1	141	16	6	0	-1	16
17	24	9	6	2	1	75	10	1	142	6	7	592.45	49	12
17	24	9	6	2	1	75	10	1	143	6	2	10	49	1
17	24	9	6	2	1	75	10	1	143	6	2	728.21	49	15
17	24	9	6	2	1	75	10	1	144	16	10	9.68	49	1
17	24	9	6	2	1	75	10	1	144	16	10	619.66	49	13
17	24	9	6	2	1	75	10	1	145	6	10	488.17	49	10
17	24	9	6	2	1	75	10	1	145	6	10	709.94	49	15
17	24	9	6	2	1	75	10	1	146	6	4	519.4	49	11
17	24	9	6	2	1	75	10	1	147	6	5	461.32	49	10
17	24	9	6	2	1	75	10	1	148	6	1	436.14	49	9
17	24	9	6	2	1	75	10	1	149	6	9	462.04	49	10
17	24	9	6	2	1	75	10	1	150	6	6	385.59	49	8
17	24	9	6	2	1	75	10	1	150	6	6	608.14	49	13
17	24	9	6	2	1	75	10	1	151	6	3	468.84	49	10
17	24	9	6	2	1	75	10	1	152	6	8	374.26	49	8
17	24	9	6	2	1	75	10	1	152	6	8	607.39	49	13
17	24	9	6	2	1	75	10	1	153	6	7	557.35	49	12
17	24	9	6	2	1	75	10	1	154	6	9	8.23	49	1
17	24	9	6	2	1	75	10	1	154	6	9	593.26	49	12
17	24	9	6	2	1	75	10	1	155	6	4	7.94	49	1
17	24	9	6	2	1	75	10	1	155	6	4	666.96	49	14
17	24	9	6	2	1	75	10	1	156	6	2	7.91	49	1
17	24	9	6	2	1	75	10	1	156	6	2	670.94	49	14
17	24	9	6	2	1	75	10	1	157	6	10	8.37	49	1
17	24	9	6	2	1	75	10	1	157	6	10	607.8	49	13
17	24	9	6	2	1	75	10	1	158	6	5	7.93	49	1
17	24	9	6	2	1	75	10	1	158	6	5	611.06	49	13
17	24	9	6	2	1	75	10	1	159	6	1	13.76	49	1
17	24	9	6	2	1	75	10	1	159	6	1	622.81	49	13
17	24	9	6	2	1	75	10	1	160	6	3	12.99	49	1
17	24	9	6	2	1	75	10	1	160	6	3	610.25	49	13
17	24	9	6	2	1	75	10	1	161	16	4	12.6	49	1
17	24	9	6	2	1	75	10	1	162	6	6	577.89	49	12
17	24	9	6	2	1	75	10	1	163	16	8	10.76	49	1
17	24	9	6	2	1	75	10	1	164	6	8	658.57	49	14
17	24	9	6	2	1	75	10	1	165	6	6	7.6	49	1
17	24	9	6	2	1	75	10	1	165	6	6	659.37	49	14
17	24	9	6	2	1	75	10	1	166	16	7	7.54	49	1
17	24	9	6	2	1	75	10	1	167	6	4	392.33	49	8
17	24	9	6	2	1	75	10	1	167	6	4	607.13	49	13
17	24	9	6	2	1	75	10	1	168	6	5	372.68	49	8
17	24	9	6	2	1	75	10	1	169	6	10	510.15	49	11
17	24	9	6	2	1	75	10	1	169	6	10	759.76	49	16
17	24	9	6	2	1	75	10	1	170	6	9	418.08	49	9
17	24	9	6	2	1	75	10	1	170	6	9	659.32	49	14
17	24	9	6	2	1	75	10	1	171	6	7	524.36	49	11
17	24	9	6	2	1	75	10	1	172	16	5	559.94	49	12
17	24	9	6	2	1	75	10	1	173	6	2	0	-1	16
17	24	9	6	2	1	75	10	1	174	16	2	38.84	49	1
17	24	9	6	2	1	75	10	1	175	6	1	13.2	49	1
17	24	9	6	2	1	75	10	1	176	6	8	384.96	49	8
17	24	9	6	2	1	75	10	1	176	6	8	608.06	49	13
17	24	9	6	2	1	75	10	1	177	6	3	471.12	49	10
17	24	9	6	2	1	75	10	1	177	6	3	710.2	49	15
17	24	9	6	2	1	75	10	1	178	6	5	491.34	49	10
17	24	9	6	2	1	75	10	1	178	6	5	709.87	49	15
17	24	9	6	2	1	75	10	1	179	6	4	429.68	49	9
17	24	9	6	2	1	75	10	1	180	6	2	520.37	49	11
17	24	9	6	2	1	75	10	1	181	6	10	511.53	49	11
17	24	9	6	2	1	75	10	1	182	6	9	560.55	49	12
17	24	9	6	2	1	75	10	1	183	6	6	521.59	49	11
17	24	9	6	2	1	75	10	1	184	16	9	0	-1	16
17	24	9	6	2	1	75	10	1	185	16	1	0	-1	16
17	24	9	6	2	1	75	10	1	186	6	8	0	-1	16
17	24	9	6	2	1	75	10	1	187	6	7	129.48	49	3
17	24	9	6	2	1	75	10	1	187	6	7	581.58	49	12
17	24	9	6	2	1	75	10	1	188	6	3	609.53	49	13
17	24	9	6	2	1	75	10	1	189	6	1	8.22	49	1
17	24	9	6	2	1	75	10	1	189	6	1	678.9	49	14
17	24	9	6	2	1	75	10	1	190	6	6	7.88	49	1
17	24	9	6	2	1	75	10	1	190	6	6	673.17	49	14
17	24	9	6	2	1	75	10	1	191	16	3	7.2	49	1
17	24	9	6	2	1	75	10	1	192	6	4	557.46	49	12
17	24	9	6	2	1	75	10	1	192	6	4	759.87	49	16
17	24	9	6	2	1	75	10	1	193	6	1	471.53	49	10
17	24	9	6	2	1	75	10	1	193	6	1	709.92	49	15
17	24	9	6	2	1	75	10	1	194	6	2	659.32	49	14
17	24	9	6	2	1	75	10	1	195	16	6	7.24	49	1
17	24	9	6	2	1	75	10	1	196	6	5	458.33	49	10
17	24	9	6	2	1	75	10	1	197	6	9	358.82	49	8
17	24	9	6	2	1	75	10	1	198	16	8	409.39	49	9
17	24	9	6	2	1	75	10	1	198	16	8	609.89	49	13
17	24	9	6	2	1	75	10	1	199	16	10	577.88	49	12
17	24	9	6	2	1	75	10	1	200	6	10	664.38	49	14
17	24	9	6	2	1	75	10	1	201	6	7	12.4	49	1
17	24	9	6	2	1	75	10	1	201	6	7	512.69	49	11
17	24	9	6	2	1	75	10	1	202	6	8	530.77	49	11
17	24	9	6	2	1	75	10	1	202	6	8	758.81	49	16
17	24	9	6	2	1	75	10	1	203	16	2	544.34	49	11
17	24	9	6	2	1	75	10	1	204	6	3	764.58	49	16
17	24	9	6	2	1	75	10	1	205	16	7	18.31	49	1
17	24	9	6	2	1	75	10	1	206	6	7	617.07	49	13
17	24	9	6	2	1	75	10	1	207	6	1	9.69	49	1
17	24	9	6	2	1	75	10	1	207	6	1	679.63	49	14
17	24	9	6	2	1	75	10	1	208	6	5	7.81	49	1
17	24	9	6	2	1	75	10	1	208	6	5	557.67	49	12
17	24	9	6	2	1	75	10	1	208	6	5	757.81	49	16
17	24	9	6	2	1	75	10	1	209	16	1	574.56	49	12
17	24	9	6	2	1	75	10	1	210	6	10	9.85	49	1
17	24	9	6	2	1	75	10	1	211	6	4	11.9	49	1
17	24	9	6	2	1	75	10	1	212	16	4	26.09	49	1
17	24	9	6	2	1	75	10	1	213	6	2	669.21	49	14
17	24	9	6	2	1	75	10	1	214	6	9	8.49	49	1
17	24	9	6	2	1	75	10	1	214	6	9	609.66	49	13
17	24	9	6	2	1	75	10	1	215	16	5	611.22	49	13
17	24	9	6	2	1	75	10	1	216	6	3	707.38	49	15
17	24	9	6	2	1	75	10	1	217	6	6	7.99	49	1
17	24	9	6	2	1	75	10	1	217	6	6	529.68	49	11
17	24	9	6	2	1	75	10	1	218	6	8	528.07	49	11
17	24	9	6	2	1	75	10	1	219	6	6	758.8	49	16
17	24	9	6	2	1	75	10	1	220	6	4	7.12	49	1
17	24	9	6	2	1	75	10	1	220	6	4	207.2	49	5
17	24	9	6	2	1	75	10	1	220	6	4	635.02	49	13
17	24	9	6	2	1	75	10	1	221	16	9	10.34	49	1
17	24	9	6	2	1	75	10	1	221	16	9	560.46	49	12
17	24	9	6	2	1	75	10	1	222	6	9	8.75	49	1
17	24	9	6	2	1	75	10	1	222	6	9	610.43	49	13
17	24	9	6	2	1	75	10	1	223	6	10	512.96	49	11
17	24	9	6	2	1	75	10	1	224	6	1	521.86	49	11
17	24	9	6	2	1	75	10	1	225	16	3	0	-1	16
17	24	9	6	2	1	75	10	1	226	6	2	528.81	49	11
17	24	9	6	2	1	75	10	1	226	6	2	758.66	49	16
17	24	9	6	2	1	75	10	1	227	6	7	660.29	49	14
17	24	9	6	2	1	75	10	1	228	6	5	7.35	49	1
17	24	9	6	2	1	75	10	1	228	6	5	520.33	49	11
17	24	9	6	2	1	75	10	1	229	6	8	469.11	49	10
17	24	9	6	2	1	75	10	1	229	6	8	707.39	49	15
17	24	9	6	2	1	75	10	1	230	6	3	424.82	49	9
17	24	9	6	2	1	75	10	1	230	6	3	659.94	49	14
17	24	9	6	2	1	75	10	1	231	6	6	409.84	49	9
17	24	9	6	2	1	75	10	1	232	16	6	407.46	49	9
17	24	9	6	2	1	75	10	1	233	16	7	0	-1	16
17	24	9	6	2	1	75	10	1	234	6	5	636.31	49	13
17	24	9	6	2	1	75	10	1	235	6	7	9.42	49	1
17	24	9	6	2	1	75	10	1	235	6	7	520.74	49	11
17	24	9	6	2	1	75	10	1	236	16	8	518.34	49	11
17	24	9	6	2	1	75	10	1	236	16	8	759.61	49	16
17	24	9	6	2	1	75	10	1	237	6	1	0	-1	16
17	24	9	6	2	1	75	10	1	238	6	2	212.76	49	5
17	24	9	6	2	1	75	10	1	238	6	2	675.61	49	14
17	24	9	6	2	1	75	10	1	239	6	8	9.05	49	1
17	24	9	6	2	1	75	10	1	239	6	8	611.48	49	13
17	24	9	6	2	1	75	10	1	240	6	4	637.46	49	13
17	24	9	6	2	1	75	10	1	241	6	9	7.51	49	1
17	24	9	6	2	1	75	10	1	242	6	10	7.73	49	1
17	24	9	6	2	1	75	10	1	242	6	10	259.48	49	6
17	24	9	6	2	1	75	10	1	242	6	10	718.38	49	15
17	24	9	6	2	1	75	10	1	243	6	3	7.39	49	1
17	24	9	6	2	1	75	10	1	243	6	3	694.27	49	14
17	24	9	6	2	1	75	10	1	244	16	5	7.35	49	1
17	24	9	6	2	1	75	10	1	245	6	7	510.1	49	11
17	24	9	6	2	1	75	10	1	246	6	10	0	-1	16
17	24	9	6	2	1	75	10	1	247	6	4	29.13	49	1
17	24	9	6	2	1	75	10	1	247	6	4	577.45	49	12
17	24	9	6	2	1	75	10	1	248	6	2	659.53	49	14
17	24	9	6	2	1	75	10	1	249	6	5	12.36	49	1
17	24	9	6	2	1	75	10	1	249	6	5	619.25	49	13
17	24	9	6	2	1	75	10	1	250	16	2	11.84	49	1
17	24	9	6	2	1	75	10	1	250	16	2	618.28	49	13
17	24	9	6	2	1	75	10	1	251	16	1	10.04	49	1
17	24	9	6	2	1	75	10	1	252	6	1	625.65	49	13
17	24	9	6	2	1	75	10	1	253	16	4	8.29	49	1
17	24	9	6	2	1	75	10	1	253	16	4	386.5	49	8
17	24	9	6	2	1	75	10	1	254	6	9	670.62	49	14
17	24	9	6	2	1	75	10	1	255	6	6	10.16	49	1
17	24	9	6	2	1	75	10	1	255	6	6	712.22	49	15
17	24	9	6	2	1	75	10	1	256	6	3	7.75	49	1
17	24	9	6	2	1	75	10	1	256	6	3	620	49	13
17	24	9	6	2	1	75	10	1	257	6	8	7.7	49	1
17	24	9	6	2	1	75	10	1	257	6	8	626.03	49	13
17	24	9	6	2	1	75	10	1	258	6	6	7.2	49	1
17	24	9	6	2	1	75	10	1	258	6	6	692.13	49	14
17	24	9	6	2	1	75	10	1	259	6	2	9.99	49	1
17	24	9	6	2	1	75	10	1	259	6	2	671.08	49	14
17	24	9	6	2	1	75	10	1	260	6	7	10.13	49	1
17	24	9	6	2	1	75	10	1	260	6	7	635.52	49	13
17	24	9	6	2	1	75	10	1	261	16	9	9.63	49	1
17	24	9	6	2	1	75	10	1	262	6	8	565.75	49	12
17	24	9	6	2	1	75	10	1	263	6	5	431.68	49	9
17	24	9	6	2	1	75	10	1	263	6	5	659.63	49	14
17	24	9	6	2	1	75	10	1	264	6	9	590.04	49	12
17	24	9	6	2	1	75	10	1	265	16	10	8.55	49	1
17	24	9	6	2	1	75	10	1	266	6	1	259.58	49	6
17	24	9	6	2	1	75	10	1	266	6	1	509.37	49	11
17	24	9	6	2	1	75	10	1	267	6	4	478.01	49	10
17	24	9	6	2	1	75	10	1	267	6	4	708.92	49	15
17	24	9	6	2	1	75	10	1	268	6	10	587	49	12
17	24	9	6	2	1	75	10	1	269	16	3	10.18	49	1
17	24	9	6	2	1	75	10	1	269	16	3	529.01	49	11
17	24	9	6	2	1	75	10	1	270	6	3	578.89	49	12
17	24	9	6	2	1	75	10	1	271	16	7	530.65	49	11
17	24	9	6	2	1	75	10	1	272	6	6	592.74	49	12
17	24	9	6	2	1	75	10	1	273	16	1	0	-1	16
17	24	9	6	2	1	75	10	1	274	6	8	0	-1	16
17	24	9	6	2	1	75	10	1	275	6	4	84.13	49	2
17	24	9	6	2	1	75	10	1	275	6	4	687.79	49	14
17	24	9	6	2	1	75	10	1	276	16	10	10.73	49	1
17	24	9	6	2	1	75	10	1	277	6	10	423.44	49	9
17	24	9	6	2	1	75	10	1	278	6	2	444.46	49	9
17	24	9	6	2	1	75	10	1	279	6	9	429.92	49	9
17	24	9	6	2	1	75	10	1	279	6	9	668.38	49	14
17	24	9	6	2	1	75	10	1	280	6	1	589.9	49	12
17	24	9	6	2	1	75	10	1	281	6	5	515.33	49	11
17	24	9	6	2	1	75	10	1	281	6	5	760.06	49	16
17	24	9	6	2	1	75	10	1	282	6	7	558.03	49	12
17	24	9	6	2	1	75	10	1	282	6	7	758.05	49	16
17	24	9	6	2	1	75	10	1	283	6	3	479.87	49	10
17	24	9	6	2	1	75	10	1	284	6	2	575.26	49	12
17	24	9	6	2	1	75	10	1	285	6	10	676.42	49	14
17	24	9	6	2	1	75	10	1	286	6	9	11.68	49	1
17	24	9	6	2	1	75	10	1	286	6	9	661.76	49	14
17	24	9	6	2	1	75	10	1	287	6	8	9.77	49	1
17	24	9	6	2	1	75	10	1	287	6	8	710.47	49	15
17	24	9	6	2	1	75	10	1	288	16	9	9.08	49	1
17	24	9	6	2	1	75	10	1	289	6	5	516.16	49	11
17	24	9	6	2	1	75	10	1	290	6	1	564.3	49	12
17	24	9	6	2	1	75	10	1	291	6	7	581.53	49	12
17	24	9	6	2	1	75	10	1	292	16	2	759.15	49	16
17	24	9	6	2	1	75	10	1	293	6	3	7.09	49	1
17	24	9	6	2	1	75	10	1	294	6	6	7.81	49	1
17	24	9	6	2	1	75	10	1	294	6	6	658.72	49	14
17	24	9	6	2	1	75	10	1	295	6	4	10.85	49	1
17	24	9	6	2	1	75	10	1	295	6	4	710.85	49	15
17	24	9	6	2	1	75	10	1	296	16	5	10.41	49	1
17	24	9	6	2	1	75	10	1	297	16	4	412.34	49	9
17	24	9	6	2	1	75	10	1	298	6	2	662.27	49	14
17	24	9	6	2	1	75	10	1	299	6	9	12.14	49	1
17	24	9	6	2	1	75	10	1	299	6	9	577.61	49	12
17	24	9	6	2	1	75	10	1	300	6	10	435.2	49	9
17	24	9	6	2	1	75	10	1	300	6	10	660.4	49	14
17	24	9	6	2	1	75	10	1	301	16	6	424.2	49	9
17	24	9	6	2	1	75	10	1	301	16	6	658.32	49	14
17	24	9	6	2	1	75	10	1	302	6	1	707.55	49	15
17	24	9	6	2	1	75	10	1	303	6	8	7.9	49	1
17	24	9	6	2	1	75	10	1	303	6	8	584.87	49	12
17	24	9	6	2	1	75	10	1	304	16	3	481.88	49	10
17	24	9	6	2	1	75	10	1	305	6	6	617.07	49	13
17	24	9	6	2	1	75	10	1	306	16	8	7.5	49	1
17	24	9	6	2	1	75	10	1	307	6	7	620.27	49	13
17	24	9	6	2	1	75	10	1	308	6	3	12.23	49	1
17	24	9	6	2	1	75	10	1	308	6	3	523.13	49	11
17	24	9	6	2	1	75	10	1	309	16	7	0	-1	16
17	24	9	6	2	1	75	10	1	310	16	1	509.82	49	11
17	24	9	6	2	1	75	10	1	310	16	1	761.55	49	16
17	24	9	6	2	1	75	10	1	311	6	5	10.72	49	1
17	24	9	6	2	1	75	10	1	312	6	4	511.68	49	11
17	24	9	6	2	1	75	10	1	313	6	7	558.33	49	12
17	24	9	6	2	1	75	10	1	313	6	7	758.35	49	16
17	24	9	6	2	1	75	10	1	314	16	9	7.82	49	1
17	24	9	6	2	1	75	10	1	315	6	9	457.25	49	10
17	24	9	6	2	1	75	10	1	315	6	9	658.19	49	14
17	24	9	6	2	1	75	10	1	316	16	4	446.17	49	9
17	24	9	6	2	1	75	10	1	317	6	2	580.34	49	12
17	24	9	6	2	1	75	10	1	318	6	4	629.89	49	13
17	24	9	6	2	1	75	10	1	319	16	5	7.54	49	1
17	24	9	6	2	1	75	10	1	320	6	5	718.24	49	15
17	24	9	6	2	1	75	10	1	321	6	1	12.66	49	1
17	24	9	6	2	1	75	10	1	322	6	10	161.85	49	4
17	24	9	6	2	1	75	10	1	322	6	10	610.14	49	13
17	24	9	6	2	1	75	10	1	323	16	10	570.82	49	12
17	24	9	6	2	1	75	10	1	324	16	2	0	-1	16
17	24	9	6	2	1	75	10	1	325	6	6	9.91	49	1
17	24	9	6	2	1	75	10	1	326	6	3	8.93	49	1
17	24	9	6	2	1	75	10	1	326	6	3	626.7	49	13
17	24	9	6	2	1	75	10	1	327	6	8	7.73	49	1
17	24	9	6	2	1	75	10	1	328	6	5	187.19	49	4
17	24	9	6	2	1	75	10	1	328	6	5	577.12	49	12
17	24	9	6	2	1	75	10	1	329	6	10	659.47	49	14
17	24	9	6	2	1	75	10	1	330	6	4	7.59	49	1
17	24	9	6	2	1	75	10	1	330	6	4	509.2	49	11
17	24	9	6	2	1	75	10	1	331	6	9	526.68	49	11
17	24	9	6	2	1	75	10	1	332	6	2	659.15	49	14
17	24	9	6	2	1	75	10	1	333	6	8	8.17	49	1
17	24	9	6	2	1	75	10	1	333	6	8	557.85	49	12
17	24	9	6	2	1	75	10	1	334	6	7	639.75	49	13
17	24	9	6	2	1	75	10	1	335	6	3	9.82	49	1
17	24	9	6	2	1	75	10	1	335	6	3	677.72	49	14
17	24	9	6	2	1	75	10	1	336	6	6	10.02	49	1
17	24	9	6	2	1	75	10	1	336	6	6	592.96	49	12
17	24	9	6	2	1	75	10	1	337	6	1	692.12	49	14
17	24	9	6	2	1	75	10	1	338	6	7	11.52	49	1
17	24	9	6	2	1	75	10	1	338	6	7	708.68	49	15
17	24	9	6	2	1	75	10	1	339	6	9	8.33	49	1
17	24	9	6	2	1	75	10	1	339	6	9	758.52	49	16
17	24	9	6	2	1	75	10	1	340	6	4	7.54	49	1
17	24	9	6	2	1	75	10	1	340	6	4	210.71	49	5
17	24	9	6	2	1	75	10	1	341	6	10	10.66	49	1
17	24	9	6	2	1	75	10	1	341	6	10	670.17	49	14
17	24	9	6	2	1	75	10	1	342	6	5	10.32	49	1
17	24	9	6	2	1	75	10	1	342	6	5	632.91	49	13
17	24	9	6	2	1	75	10	1	343	16	6	7.69	49	1
17	24	9	6	2	1	75	10	1	344	16	3	0	-1	16
17	24	9	6	2	1	75	10	1	345	16	8	0	-1	16
17	24	9	6	2	1	75	10	1	346	6	2	0	-1	16
17	24	9	6	2	1	75	10	1	347	16	2	79.03	49	2
17	24	9	6	2	1	75	10	1	347	16	2	608.57	49	13
17	24	9	6	2	1	75	10	1	348	6	1	776.4	49	16
17	24	9	6	2	1	75	10	1	349	6	3	10	49	1
17	24	9	6	2	1	75	10	1	349	6	3	762.76	49	16
17	24	9	6	2	1	75	10	1	350	6	6	10.04	49	1
17	24	9	6	2	1	75	10	1	350	6	6	512.03	49	11
17	24	9	6	2	1	75	10	1	351	6	8	491.8	49	10
17	24	9	6	2	1	75	10	1	351	6	8	707.77	49	15
17	24	9	6	2	1	75	10	1	352	6	2	629	49	13
17	24	9	6	2	1	75	10	1	353	6	9	7.3	49	1
17	24	9	6	2	1	75	10	1	353	6	9	494.69	49	10
17	24	9	6	2	1	75	10	1	353	6	9	710.7	49	15
17	24	9	6	2	1	75	10	1	354	6	10	673.41	49	14
17	24	9	6	2	1	75	10	1	355	6	7	67.23	49	2
17	24	9	6	2	1	75	10	1	355	6	7	713.66	49	15
17	24	9	6	2	1	75	10	1	356	16	9	9.78	49	1
17	24	9	6	2	1	75	10	1	357	6	1	582.23	49	12
17	24	9	6	2	1	75	10	1	358	6	6	609.42	49	13
17	24	9	6	2	1	75	10	1	359	6	5	8.03	49	1
17	24	9	6	2	1	75	10	1	359	6	5	460.78	49	10
17	24	9	6	2	1	75	10	1	360	6	8	386.13	49	8
17	24	9	6	2	1	75	10	1	360	6	8	609.45	49	13
17	24	9	6	2	1	75	10	1	361	6	3	510.04	49	11
17	24	9	6	2	1	75	10	1	361	6	3	710.17	49	15
17	24	9	6	2	1	75	10	1	362	6	4	480.7	49	10
17	24	9	6	2	1	75	10	1	362	6	4	710.33	49	15
17	24	9	6	2	1	75	10	1	363	6	5	409.34	49	9
17	24	9	6	2	1	75	10	1	364	6	2	414.15	49	9
17	24	9	6	2	1	75	10	1	364	6	2	657.91	49	14
17	24	9	6	2	1	75	10	1	365	16	10	0	-1	16
17	24	9	6	2	1	75	10	1	366	6	10	586.02	49	12
17	24	9	6	2	1	75	10	1	367	6	9	718.82	49	15
17	24	9	6	2	1	75	10	1	368	6	4	7.54	49	1
17	24	9	6	2	1	75	10	1	368	6	4	629.6	49	13
17	24	9	6	2	1	75	10	1	369	6	3	8.62	49	1
17	24	9	6	2	1	75	10	1	369	6	3	578.53	49	12
17	24	9	6	2	1	75	10	1	370	6	8	589.19	49	12
17	24	9	6	2	1	75	10	1	371	6	7	9.9	49	1
17	24	9	6	2	1	75	10	1	371	6	7	679.41	49	14
17	24	9	6	2	1	75	10	1	372	6	6	12.94	49	1
17	24	9	6	2	1	75	10	1	372	6	6	509.95	49	11
17	24	9	6	2	1	75	10	1	372	6	6	759.75	49	16
17	24	9	6	2	1	75	10	1	373	6	1	659.78	49	14
17	24	9	6	2	1	75	10	1	374	6	2	10.43	49	1
17	24	9	6	2	1	75	10	1	374	6	2	679.39	49	14
17	24	9	6	2	1	75	10	1	375	6	10	32.46	49	1
17	24	9	6	2	1	75	10	1	375	6	10	627.3	49	13
17	24	9	6	2	1	75	10	1	376	6	9	8.93	49	1
17	24	9	6	2	1	75	10	1	376	6	9	611.01	49	13
17	24	9	6	2	1	75	10	1	377	6	7	7.61	49	1
17	24	9	6	2	1	75	10	1	377	6	7	532.91	49	11
17	24	9	6	2	1	75	10	1	377	6	7	757.18	49	16
17	24	9	6	2	1	75	10	1	378	16	7	607.14	49	13
17	24	9	6	2	1	75	10	1	379	16	3	10.08	49	1
17	24	9	6	2	1	75	10	1	379	16	3	710.4	49	15
17	24	9	6	2	1	75	10	1	380	16	5	27.53	49	1
17	24	9	6	2	1	75	10	1	381	6	5	584.01	49	12
17	24	9	6	2	1	75	10	1	382	16	6	457.77	49	10
17	24	9	6	2	1	75	10	1	383	6	8	695.74	49	14
17	24	9	6	2	1	75	10	1	384	6	1	11.03	49	1
17	24	9	6	2	1	75	10	1	384	6	1	608.45	49	13
17	24	9	6	2	1	75	10	1	385	6	6	29.67	49	1
17	24	9	6	2	1	75	10	1	385	6	6	640.83	49	13
17	24	9	6	2	1	75	10	1	386	6	3	10.08	49	1
17	24	9	6	2	1	75	10	1	386	6	3	589.95	49	12
17	24	9	6	2	1	75	10	1	387	16	8	13.68	49	1
17	24	9	6	2	1	75	10	1	388	6	4	584.76	49	12
17	24	9	6	2	1	75	10	1	389	6	7	660.64	49	14
17	24	9	6	2	1	75	10	1	390	6	1	16.35	49	1
17	24	9	6	2	1	75	10	1	390	6	1	686.32	49	14
17	24	9	6	2	1	75	10	1	391	6	2	7.53	49	1
17	24	9	6	2	1	75	10	1	391	6	2	620.59	49	13
17	24	9	6	2	1	75	10	1	392	6	5	7.55	49	1
17	24	9	6	2	1	75	10	1	392	6	5	782.82	49	16
17	24	9	6	2	1	75	10	1	393	16	1	7.89	49	1
17	24	9	6	2	1	75	10	1	393	16	1	614.19	49	13
17	24	9	6	2	1	75	10	1	394	6	10	10.14	49	1
17	24	9	6	2	1	75	10	1	395	16	4	244.04	49	5
17	24	9	6	2	1	75	10	1	396	6	4	434.65	49	9
17	24	9	6	2	1	75	10	1	397	6	9	591.26	49	12
17	24	9	6	2	1	75	10	1	398	6	6	10.02	49	1
17	24	9	6	2	1	75	10	1	398	6	6	590.9	49	12
17	24	9	6	2	1	75	10	1	399	6	3	573.37	49	12
17	24	9	6	2	1	75	10	1	400	6	8	15.47	49	1
17	24	9	6	2	1	75	10	1	400	6	8	687.51	49	14
17	24	9	6	2	1	75	10	1	401	16	5	8.49	49	1
17	24	9	6	2	1	75	10	1	401	16	5	607.88	49	13
17	24	9	6	2	1	75	10	1	402	6	6	567.64	49	12
17	24	9	6	2	1	75	10	1	403	16	9	10.4	49	1
17	24	9	6	2	1	75	10	1	403	16	9	507.35	49	11
17	24	9	6	2	1	75	10	1	404	6	10	539.24	49	11
17	24	9	6	2	1	75	10	1	405	6	9	627.32	49	13
17	24	9	6	2	1	75	10	1	406	16	2	7.38	49	1
17	24	9	6	2	1	75	10	1	407	16	10	683.5	49	14
17	24	9	6	2	1	75	10	1	408	6	5	7.5	49	1
17	24	9	6	2	1	75	10	1	408	6	5	676.37	49	14
17	24	9	6	2	1	75	10	1	409	16	4	10.47	49	1
17	24	9	6	2	1	75	10	1	410	16	6	409.48	49	9
17	24	9	6	2	1	75	10	1	411	6	7	612.78	49	13
17	24	9	6	2	1	75	10	1	412	16	7	11.31	49	1
17	24	9	6	2	1	75	10	1	412	16	7	563.28	49	12
17	24	9	6	2	1	75	10	1	413	6	4	661.47	49	14
17	24	9	6	2	1	75	10	1	414	16	8	10.74	49	1
17	24	9	6	2	1	75	10	1	414	16	8	670.8	49	14
17	24	9	6	2	1	75	10	1	415	6	2	8.21	49	1
17	24	9	6	2	1	75	10	1	416	6	1	7.58	49	1
17	24	9	6	2	1	75	10	1	416	6	1	210.22	49	5
17	24	9	6	2	1	75	10	1	416	6	1	635.2	49	13
17	24	9	6	2	1	75	10	1	417	6	8	7.69	49	1
17	24	9	6	2	1	75	10	1	417	6	8	557.13	49	12
17	24	9	6	2	1	75	10	1	418	6	3	563.57	49	12
17	24	9	6	2	1	75	10	1	419	6	2	660.03	49	14
17	24	9	6	2	1	75	10	1	420	6	10	7.93	49	1
17	24	9	6	2	1	75	10	1	420	6	10	758.11	49	16
17	24	9	6	2	1	75	10	1	421	16	3	8.25	49	1
17	24	9	6	2	1	75	10	1	422	6	9	609.77	49	13
17	24	9	6	2	1	75	10	1	423	16	1	0	-1	16
17	24	9	6	2	1	75	10	1	424	6	7	0	-1	16
17	24	9	6	2	1	75	10	1	425	6	6	27.15	49	1
17	24	9	6	2	1	75	10	1	425	6	6	520.87	49	11
17	24	9	6	2	1	75	10	1	426	16	6	0	-1	16
17	24	9	6	2	1	75	10	1	427	6	5	418.04	49	9
17	24	9	6	2	1	75	10	1	427	6	5	658.01	49	14
17	24	9	6	2	1	75	10	1	428	16	7	570.1	49	12
17	24	9	6	2	1	75	10	1	428	16	7	771.14	49	16
17	24	9	6	2	1	75	10	1	429	6	8	0	-1	16
17	24	9	6	2	1	75	10	1	430	6	1	574.98	49	12
17	24	9	6	2	1	75	10	1	431	16	1	507.43	49	11
17	24	9	6	2	1	75	10	1	432	6	3	0	-1	16
17	24	9	6	2	1	75	10	1	433	6	4	214.01	49	5
17	24	9	6	2	1	75	10	1	433	6	4	677.74	49	14
17	24	9	6	2	1	75	10	1	434	6	6	13.57	49	1
17	24	9	6	2	1	75	10	1	434	6	6	522.43	49	11
17	24	9	6	2	1	75	10	1	435	6	1	373.59	49	8
17	24	9	6	2	1	75	10	1	435	6	1	612.19	49	13
17	24	9	6	2	1	75	10	1	436	6	4	462.24	49	10
17	24	9	6	2	1	75	10	1	437	6	10	419.01	49	9
17	24	9	6	2	1	75	10	1	438	6	5	418.15	49	9
17	24	9	6	2	1	75	10	1	439	16	10	440.26	49	9
17	24	9	6	2	1	75	10	1	439	16	10	658.46	49	14
17	24	9	6	2	1	75	10	1	440	6	7	635.28	49	13
17	24	9	6	2	1	75	10	1	441	6	2	7.71	49	1
17	24	9	6	2	1	75	10	1	441	6	2	669.34	49	14
17	24	9	6	2	1	75	10	1	442	6	9	10.16	49	1
17	24	9	6	2	1	75	10	1	442	6	9	681.02	49	14
17	24	9	6	2	1	75	10	1	443	6	8	7.58	49	1
17	24	9	6	2	1	75	10	1	443	6	8	685.47	49	14
17	24	9	6	2	1	75	10	1	444	6	3	7.32	49	1
17	24	9	6	2	1	75	10	1	444	6	3	634.37	49	13
17	24	9	6	2	1	75	10	1	445	6	5	7.97	49	1
17	24	9	6	2	1	75	10	1	445	6	5	209.23	49	5
17	24	9	6	2	1	75	10	1	445	6	5	620.96	49	13
17	24	9	6	2	1	75	10	1	446	6	4	8.49	49	1
17	24	9	6	2	1	75	10	1	446	6	4	564.71	49	12
17	24	9	6	2	1	75	10	1	447	6	9	10.07	49	1
17	24	9	6	2	1	75	10	1	447	6	9	612.25	49	13
17	24	9	6	2	1	75	10	1	448	6	2	10.49	49	1
17	24	9	6	2	1	75	10	1	448	6	2	759.75	49	16
17	24	9	6	2	1	75	10	1	449	6	10	12.99	49	1
17	24	9	6	2	1	75	10	1	449	6	10	766.27	49	16
17	24	9	6	2	1	75	10	1	450	6	8	12.56	49	1
