SubjectNum	Age	Gender	PressedTask	Block Type	Block Repeat Num	Response Rate	Onset	Block	Trial	ImgType	ImgNum	RT	PressedC	FrameC
17	24	9	6	2	1	75	10	1	1	6	5	694.97	49	13
17	24	9	6	2	1	75	10	1	2	6	10	9.62	49	1
17	24	9	6	2	1	75	10	1	2	6	10	458.8	49	10
17	24	9	6	2	1	75	10	1	2	6	10	661.03	49	14
17	24	9	6	2	1	75	10	1	3	6	4	432.61	49	9
17	24	9	6	2	1	75	10	1	3	6	4	661.53	49	14
17	24	9	6	2	1	75	10	1	4	6	9	365.62	49	8
17	24	9	6	2	1	75	10	1	4	6	9	609.16	49	13
17	24	9	6	2	1	75	10	1	5	16	7	336.2	49	7
17	24	9	6	2	1	75	10	1	5	16	7	560.03	49	12
17	24	9	6	2	1	75	10	1	6	6	2	457.75	49	10
17	24	9	6	2	1	75	10	1	7	6	3	417.42	49	9
17	24	9	6	2	1	75	10	1	8	16	9	335.6	49	7
17	24	9	6	2	1	75	10	1	8	16	9	557.6	49	12
17	24	9	6	2	1	75	10	1	9	6	8	570.94	49	12
17	24	9	6	2	1	75	10	1	10	16	2	428.42	49	9
17	24	9	6	2	1	75	10	1	11	6	7	658.21	49	14
17	24	9	6	2	1	75	10	1	12	6	6	8.49	49	1
17	24	9	6	2	1	75	10	1	12	6	6	485.3	49	10
17	24	9	6	2	1	75	10	1	13	6	1	660.52	49	14
17	24	9	6	2	1	75	10	1	14	16	5	10.04	49	1
17	24	9	6	2	1	75	10	1	14	16	5	510.15	49	11
17	24	9	6	2	1	75	10	1	15	6	5	514.7	49	11
17	24	9	6	2	1	75	10	1	16	6	2	460.25	49	10
17	24	9	6	2	1	75	10	1	16	6	2	662.21	49	14
17	24	9	6	2	1	75	10	1	17	6	4	526.95	49	11
17	24	9	6	2	1	75	10	1	18	6	9	537.6	49	11
17	24	9	6	2	1	75	10	1	19	6	10	586.17	49	12
17	24	9	6	2	1	75	10	1	20	16	1	0	-1	16
17	24	9	6	2	1	75	10	1	21	6	3	557.25	49	12
17	24	9	6	2	1	75	10	1	22	16	10	0	-1	16
17	24	9	6	2	1	75	10	1	23	6	7	16.86	49	1
17	24	9	6	2	1	75	10	1	23	6	7	638.97	49	13
17	24	9	6	2	1	75	10	1	24	16	4	7.46	49	1
17	24	9	6	2	1	75	10	1	25	6	8	624.3	49	13
17	24	9	6	2	1	75	10	1	26	16	3	515.85	49	11
17	24	9	6	2	1	75	10	1	27	6	6	562.04	49	12
17	24	9	6	2	1	75	10	1	28	6	1	709.45	49	15
17	24	9	6	2	1	75	10	1	29	6	6	8.08	49	1
17	24	9	6	2	1	75	10	1	29	6	6	662	49	14
17	24	9	6	2	1	75	10	1	30	6	1	7.81	49	1
17	24	9	6	2	1	75	10	1	30	6	1	774.12	49	16
17	24	9	6	2	1	75	10	1	31	16	6	7.73	49	1
17	24	9	6	2	1	75	10	1	32	6	9	591.96	49	12
17	24	9	6	2	1	75	10	1	33	6	8	679.89	49	14
17	24	9	6	2	1	75	10	1	34	6	10	7.95	49	1
17	24	9	6	2	1	75	10	1	34	6	10	779.55	49	16
17	24	9	6	2	1	75	10	1	35	16	8	7.91	49	1
17	24	9	6	2	1	75	10	1	36	6	7	662.94	49	14
17	24	9	6	2	1	75	10	1	37	6	4	9.9	49	1
17	24	9	6	2	1	75	10	1	37	6	4	738.45	49	15
17	24	9	6	2	1	75	10	1	38	6	2	11.58	49	1
17	24	9	6	2	1	75	10	1	38	6	2	762.75	49	16
17	24	9	6	2	1	75	10	1	39	6	5	10.86	49	1
17	24	9	6	2	1	75	10	1	39	6	5	568.65	49	12
17	24	9	6	2	1	75	10	1	40	16	7	0	-1	16
17	24	9	6	2	1	75	10	1	41	16	4	0	-1	16
17	24	9	6	2	1	75	10	1	42	6	3	615.35	49	13
17	24	9	6	2	1	75	10	1	43	6	7	8.25	49	1
17	24	9	6	2	1	75	10	1	43	6	7	757.62	49	16
17	24	9	6	2	1	75	10	1	44	6	5	7.6	49	1
17	24	9	6	2	1	75	10	1	44	6	5	209.46	49	5
17	24	9	6	2	1	75	10	1	44	6	5	727.08	49	15
17	24	9	6	2	1	75	10	1	45	6	2	7.98	49	1
17	24	9	6	2	1	75	10	1	45	6	2	709.17	49	15
17	24	9	6	2	1	75	10	1	46	6	1	7.29	49	1
17	24	9	6	2	1	75	10	1	46	6	1	667.05	49	14
17	24	9	6	2	1	75	10	1	47	6	9	11.1	49	1
17	24	9	6	2	1	75	10	1	47	6	9	592.37	49	12
17	24	9	6	2	1	75	10	1	48	6	4	608.09	49	13
17	24	9	6	2	1	75	10	1	49	16	5	8.13	49	1
17	24	9	6	2	1	75	10	1	50	16	1	15.6	49	1
17	24	9	6	2	1	75	10	1	51	6	10	773.06	49	16
17	24	9	6	2	1	75	10	1	52	6	6	9.93	49	1
17	24	9	6	2	1	75	10	1	52	6	6	662.51	49	14
17	24	9	6	2	1	75	10	1	53	6	3	9.53	49	1
17	24	9	6	2	1	75	10	1	53	6	3	632.51	49	13
17	24	9	6	2	1	75	10	1	54	6	8	8.37	49	1
17	24	9	6	2	1	75	10	1	54	6	8	681.43	49	14
17	24	9	6	2	1	75	10	1	55	16	2	7.79	49	1
17	24	9	6	2	1	75	10	1	55	16	2	583.15	49	12
17	24	9	6	2	1	75	10	1	56	6	2	0	-1	16
17	24	9	6	2	1	75	10	1	57	6	10	126.23	49	3
17	24	9	6	2	1	75	10	1	57	6	10	680.49	49	14
17	24	9	6	2	1	75	10	1	58	6	9	7.66	49	1
17	24	9	6	2	1	75	10	1	58	6	9	595.54	49	12
17	24	9	6	2	1	75	10	1	59	16	10	616.42	49	13
17	24	9	6	2	1	75	10	1	60	6	1	11.04	49	1
17	24	9	6	2	1	75	10	1	60	6	1	677.21	49	14
17	24	9	6	2	1	75	10	1	61	6	8	10.96	49	1
17	24	9	6	2	1	75	10	1	61	6	8	513.44	49	11
17	24	9	6	2	1	75	10	1	62	6	3	509.59	49	11
17	24	9	6	2	1	75	10	1	63	6	6	664.67	49	14
17	24	9	6	2	1	75	10	1	64	6	5	12.12	49	1
17	24	9	6	2	1	75	10	1	64	6	5	610.13	49	13
17	24	9	6	2	1	75	10	1	65	6	7	10.17	49	1
17	24	9	6	2	1	75	10	1	65	6	7	710.67	49	15
17	24	9	6	2	1	75	10	1	66	6	4	7.95	49	1
17	24	9	6	2	1	75	10	1	66	6	4	684.56	49	14
17	24	9	6	2	1	75	10	1	67	6	7	7.54	49	1
17	24	9	6	2	1	75	10	1	68	6	4	224.8	49	5
17	24	9	6	2	1	75	10	1	68	6	4	734.84	49	15
17	24	9	6	2	1	75	10	1	69	6	10	7.21	49	1
17	24	9	6	2	1	75	10	1	69	6	10	669.38	49	14
17	24	9	6	2	1	75	10	1	70	6	2	7.46	49	1
17	24	9	6	2	1	75	10	1	70	6	2	760.04	49	16
17	24	9	6	2	1	75	10	1	71	6	1	7.29	49	1
17	24	9	6	2	1	75	10	1	71	6	1	682.99	49	14
17	24	9	6	2	1	75	10	1	72	6	9	7.95	49	1
17	24	9	6	2	1	75	10	1	72	6	9	642.06	49	13
17	24	9	6	2	1	75	10	1	73	6	5	10.1	49	1
17	24	9	6	2	1	75	10	1	73	6	5	608.54	49	13
17	24	9	6	2	1	75	10	1	74	6	6	10.04	49	1
17	24	9	6	2	1	75	10	1	74	6	6	565.86	49	12
17	24	9	6	2	1	75	10	1	75	6	3	559.72	49	12
17	24	9	6	2	1	75	10	1	75	6	3	759.93	49	16
17	24	9	6	2	1	75	10	1	76	6	8	590.02	49	12
17	24	9	6	2	1	75	10	1	77	6	5	671.67	49	14
17	24	9	6	2	1	75	10	1	78	16	9	11.15	49	1
17	24	9	6	2	1	75	10	1	79	16	6	0	-1	16
17	24	9	6	2	1	75	10	1	80	16	3	0	-1	16
17	24	9	6	2	1	75	10	1	81	16	8	0	-1	16
17	24	9	6	2	1	75	10	1	82	6	4	612.55	49	13
17	24	9	6	2	1	75	10	1	83	16	7	10.46	49	1
17	24	9	6	2	1	75	10	1	83	16	7	507.14	49	11
17	24	9	6	2	1	75	10	1	84	6	10	569.79	49	12
17	24	9	6	2	1	75	10	1	85	6	2	791.67	49	16
17	24	9	6	2	1	75	10	1	86	6	9	13.24	49	1
17	24	9	6	2	1	75	10	1	86	6	9	543.01	49	11
17	24	9	6	2	1	75	10	1	87	6	7	519.06	49	11
17	24	9	6	2	1	75	10	1	88	6	8	541.44	49	11
17	24	9	6	2	1	75	10	1	89	6	6	560.07	49	12
17	24	9	6	2	1	75	10	1	89	6	6	760.33	49	16
17	24	9	6	2	1	75	10	1	90	6	3	482.12	49	10
17	24	9	6	2	1	75	10	1	90	6	3	708.14	49	15
17	24	9	6	2	1	75	10	1	91	6	1	508.14	49	11
17	24	9	6	2	1	75	10	1	92	6	7	461.05	49	10
17	24	9	6	2	1	75	10	1	93	16	9	0	-1	16
17	24	9	6	2	1	75	10	1	94	6	5	657.26	49	14
17	24	9	6	2	1	75	10	1	95	6	2	10.17	49	1
17	24	9	6	2	1	75	10	1	96	6	1	10.51	49	1
17	24	9	6	2	1	75	10	1	96	6	1	660.17	49	14
17	24	9	6	2	1	75	10	1	97	6	9	8.46	49	1
17	24	9	6	2	1	75	10	1	97	6	9	569.15	49	12
17	24	9	6	2	1	75	10	1	98	16	2	658.32	49	14
17	24	9	6	2	1	75	10	1	99	6	4	12.4	49	1
17	24	9	6	2	1	75	10	1	99	6	4	691.48	49	14
17	24	9	6	2	1	75	10	1	100	16	4	9.58	49	1
17	24	9	6	2	1	75	10	1	100	16	4	572.24	49	12
17	24	9	6	2	1	75	10	1	101	6	10	609.23	49	13
17	24	9	6	2	1	75	10	1	102	6	3	8.34	49	1
17	24	9	6	2	1	75	10	1	102	6	3	561.72	49	12
17	24	9	6	2	1	75	10	1	103	6	6	575.75	49	12
17	24	9	6	2	1	75	10	1	104	6	8	0	-1	16
17	24	9	6	2	1	75	10	1	105	6	5	445.11	49	9
17	24	9	6	2	1	75	10	1	106	6	9	438.95	49	9
17	24	9	6	2	1	75	10	1	107	16	10	0	-1	16
17	24	9	6	2	1	75	10	1	108	6	4	514.72	49	11
17	24	9	6	2	1	75	10	1	109	16	1	0	-1	16
17	24	9	6	2	1	75	10	1	110	6	2	662.03	49	14
17	24	9	6	2	1	75	10	1	111	6	10	9.8	49	1
17	24	9	6	2	1	75	10	1	111	6	10	587.73	49	12
17	24	9	6	2	1	75	10	1	112	6	6	574.17	49	12
17	24	9	6	2	1	75	10	1	113	16	5	620.41	49	13
17	24	9	6	2	1	75	10	1	114	6	3	560.62	49	12
17	24	9	6	2	1	75	10	1	115	6	7	612.99	49	13
17	24	9	6	2	1	75	10	1	116	16	3	8.42	49	1
17	24	9	6	2	1	75	10	1	117	16	6	491.34	49	10
17	24	9	6	2	1	75	10	1	118	16	8	0	-1	16
17	24	9	6	2	1	75	10	1	119	6	8	0	-1	16
17	24	9	6	2	1	75	10	1	120	6	1	18.26	49	1
17	24	9	6	2	1	75	10	1	120	6	1	657.27	49	14
17	24	9	6	2	1	75	10	1	121	16	5	7.96	49	1
17	24	9	6	2	1	75	10	1	121	16	5	584.48	49	12
17	24	9	6	2	1	75	10	1	122	6	5	9.07	49	1
17	24	9	6	2	1	75	10	1	122	6	5	721.92	49	15
17	24	9	6	2	1	75	10	1	123	6	2	14.16	49	1
17	24	9	6	2	1	75	10	1	123	6	2	617.27	49	13
17	24	9	6	2	1	75	10	1	124	16	4	9.94	49	1
17	24	9	6	2	1	75	10	1	125	16	9	0	-1	16
17	24	9	6	2	1	75	10	1	126	16	10	581.99	49	12
17	24	9	6	2	1	75	10	1	127	6	10	8.22	49	1
17	24	9	6	2	1	75	10	1	127	6	10	530.38	49	11
17	24	9	6	2	1	75	10	1	128	16	2	0	-1	16
17	24	9	6	2	1	75	10	1	129	16	6	0	-1	16
17	24	9	6	2	1	75	10	1	130	16	8	0	-1	16
17	24	9	6	2	1	75	10	1	131	16	7	0	-1	16
17	24	9	6	2	1	75	10	1	132	6	9	0	-1	16
17	24	9	6	2	1	75	10	1	133	6	4	7.99	49	1
17	24	9	6	2	1	75	10	1	133	6	4	759.36	49	16
17	24	9	6	2	1	75	10	1	134	6	8	7.82	49	1
17	24	9	6	2	1	75	10	1	134	6	8	529.88	49	11
17	24	9	6	2	1	75	10	1	135	6	7	617.83	49	13
17	24	9	6	2	1	75	10	1	136	6	3	9.44	49	1
17	24	9	6	2	1	75	10	1	136	6	3	491.05	49	10
17	24	9	6	2	1	75	10	1	136	6	3	709.99	49	15
17	24	9	6	2	1	75	10	1	137	6	6	584.33	49	12
17	24	9	6	2	1	75	10	1	138	6	1	10.96	49	1
17	24	9	6	2	1	75	10	1	138	6	1	662.52	49	14
17	24	9	6	2	1	75	10	1	139	16	3	11.17	49	1
17	24	9	6	2	1	75	10	1	140	16	1	0	-1	16
17	24	9	6	2	1	75	10	1	141	16	6	0	-1	16
17	24	9	6	2	1	75	10	1	142	6	7	594.96	49	12
17	24	9	6	2	1	75	10	1	143	6	2	624.1	49	13
17	24	9	6	2	1	75	10	1	144	16	10	10.66	49	1
17	24	9	6	2	1	75	10	1	144	16	10	674.59	49	14
17	24	9	6	2	1	75	10	1	145	6	10	9.96	49	1
17	24	9	6	2	1	75	10	1	145	6	10	624.75	49	13
17	24	9	6	2	1	75	10	1	146	6	4	7.82	49	1
17	24	9	6	2	1	75	10	1	146	6	4	564.26	49	12
17	24	9	6	2	1	75	10	1	147	6	5	509.88	49	11
17	24	9	6	2	1	75	10	1	147	6	5	710.4	49	15
17	24	9	6	2	1	75	10	1	148	6	1	659.87	49	14
17	24	9	6	2	1	75	10	1	149	6	9	9.6	49	1
17	24	9	6	2	1	75	10	1	149	6	9	611.95	49	13
17	24	9	6	2	1	75	10	1	150	6	6	10.53	49	1
17	24	9	6	2	1	75	10	1	150	6	6	678.43	49	14
17	24	9	6	2	1	75	10	1	151	6	3	10.76	49	1
17	24	9	6	2	1	75	10	1	151	6	3	561.82	49	12
17	24	9	6	2	1	75	10	1	152	6	8	623.17	49	13
17	24	9	6	2	1	75	10	1	153	6	7	8.26	49	1
17	24	9	6	2	1	75	10	1	153	6	7	558.15	49	12
17	24	9	6	2	1	75	10	1	154	6	9	510.07	49	11
17	24	9	6	2	1	75	10	1	155	6	4	417.44	49	9
17	24	9	6	2	1	75	10	1	155	6	4	657.79	49	14
17	24	9	6	2	1	75	10	1	156	6	2	441.41	49	9
17	24	9	6	2	1	75	10	1	157	6	10	557.37	49	12
17	24	9	6	2	1	75	10	1	158	6	5	440.87	49	9
17	24	9	6	2	1	75	10	1	158	6	5	657.33	49	14
17	24	9	6	2	1	75	10	1	159	6	1	657.47	49	14
17	24	9	6	2	1	75	10	1	160	6	3	8.14	49	1
17	24	9	6	2	1	75	10	1	160	6	3	562.66	49	12
17	24	9	6	2	1	75	10	1	161	16	4	10.12	49	1
17	24	9	6	2	1	75	10	1	161	16	4	613.5	49	13
17	24	9	6	2	1	75	10	1	162	6	6	12.5	49	1
17	24	9	6	2	1	75	10	1	162	6	6	665.68	49	14
17	24	9	6	2	1	75	10	1	163	16	8	12.33	49	1
17	24	9	6	2	1	75	10	1	164	6	8	0	-1	16
17	24	9	6	2	1	75	10	1	165	6	6	11.02	49	1
17	24	9	6	2	1	75	10	1	166	16	7	24.53	49	1
17	24	9	6	2	1	75	10	1	167	6	4	557.42	49	12
17	24	9	6	2	1	75	10	1	168	6	5	608.03	49	13
17	24	9	6	2	1	75	10	1	169	6	10	557.06	49	12
17	24	9	6	2	1	75	10	1	169	6	10	761.18	49	16
17	24	9	6	2	1	75	10	1	170	6	9	639.18	49	13
17	24	9	6	2	1	75	10	1	171	6	7	7.73	49	1
17	24	9	6	2	1	75	10	1	171	6	7	709.96	49	15
17	24	9	6	2	1	75	10	1	172	16	5	7.37	49	1
17	24	9	6	2	1	75	10	1	173	6	2	9.11	49	1
17	24	9	6	2	1	75	10	1	174	16	2	70.83	49	2
17	24	9	6	2	1	75	10	1	175	6	1	183.65	49	4
17	24	9	6	2	1	75	10	1	175	6	1	409.33	49	9
17	24	9	6	2	1	75	10	1	176	6	8	509.98	49	11
17	24	9	6	2	1	75	10	1	176	6	8	710.01	49	15
17	24	9	6	2	1	75	10	1	177	6	3	435.26	49	9
17	24	9	6	2	1	75	10	1	177	6	3	641.62	49	13
17	24	9	6	2	1	75	10	1	178	6	5	414.23	49	9
17	24	9	6	2	1	75	10	1	179	6	4	387.62	49	8
17	24	9	6	2	1	75	10	1	179	6	4	609.72	49	13
17	24	9	6	2	1	75	10	1	180	6	2	537.91	49	11
17	24	9	6	2	1	75	10	1	180	6	2	757.02	49	16
17	24	9	6	2	1	75	10	1	181	6	10	491.73	49	10
17	24	9	6	2	1	75	10	1	181	6	10	709.26	49	15
17	24	9	6	2	1	75	10	1	182	6	9	643.63	49	13
17	24	9	6	2	1	75	10	1	183	6	6	7.43	49	1
17	24	9	6	2	1	75	10	1	183	6	6	590.59	49	12
17	24	9	6	2	1	75	10	1	184	16	9	7.21	49	1
17	24	9	6	2	1	75	10	1	185	16	1	0	-1	16
17	24	9	6	2	1	75	10	1	186	6	8	0	-1	16
17	24	9	6	2	1	75	10	1	187	6	7	12.2	49	1
17	24	9	6	2	1	75	10	1	187	6	7	639.34	49	13
17	24	9	6	2	1	75	10	1	188	6	3	611.94	49	13
17	24	9	6	2	1	75	10	1	189	6	1	11.57	49	1
17	24	9	6	2	1	75	10	1	189	6	1	586.73	49	12
17	24	9	6	2	1	75	10	1	190	6	6	9.01	49	1
17	24	9	6	2	1	75	10	1	190	6	6	560.61	49	12
17	24	9	6	2	1	75	10	1	191	16	3	508.07	49	11
17	24	9	6	2	1	75	10	1	191	16	3	709.9	49	15
17	24	9	6	2	1	75	10	1	192	6	4	625.69	49	13
17	24	9	6	2	1	75	10	1	193	6	1	7.69	49	1
17	24	9	6	2	1	75	10	1	193	6	1	557.72	49	12
17	24	9	6	2	1	75	10	1	193	6	1	759.97	49	16
17	24	9	6	2	1	75	10	1	194	6	2	509.91	49	11
17	24	9	6	2	1	75	10	1	195	16	6	707.26	49	15
17	24	9	6	2	1	75	10	1	196	6	5	7.08	49	1
17	24	9	6	2	1	75	10	1	196	6	5	635.46	49	13
17	24	9	6	2	1	75	10	1	197	6	9	10.16	49	1
17	24	9	6	2	1	75	10	1	197	6	9	507.49	49	11
17	24	9	6	2	1	75	10	1	198	16	8	0	-1	16
17	24	9	6	2	1	75	10	1	199	16	10	0	-1	16
17	24	9	6	2	1	75	10	1	200	6	10	59.85	49	2
17	24	9	6	2	1	75	10	1	201	6	7	609.9	49	13
17	24	9	6	2	1	75	10	1	202	6	8	709.94	49	15
17	24	9	6	2	1	75	10	1	203	16	2	8.32	49	1
17	24	9	6	2	1	75	10	1	204	6	3	610.44	49	13
17	24	9	6	2	1	75	10	1	205	16	7	0	-1	16
17	24	9	6	2	1	75	10	1	206	6	7	607.44	49	13
17	24	9	6	2	1	75	10	1	207	6	1	670.68	49	14
17	24	9	6	2	1	75	10	1	208	6	5	10.58	49	1
17	24	9	6	2	1	75	10	1	208	6	5	463.63	49	10
17	24	9	6	2	1	75	10	1	209	16	1	466.56	49	10
17	24	9	6	2	1	75	10	1	210	6	10	633.08	49	13
17	24	9	6	2	1	75	10	1	211	6	4	8.6	49	1
17	24	9	6	2	1	75	10	1	211	6	4	558.63	49	12
17	24	9	6	2	1	75	10	1	212	16	4	619.18	49	13
17	24	9	6	2	1	75	10	1	213	6	2	9.7	49	1
17	24	9	6	2	1	75	10	1	214	6	9	32.97	49	1
17	24	9	6	2	1	75	10	1	214	6	9	672.43	49	14
17	24	9	6	2	1	75	10	1	215	16	5	13.28	49	1
17	24	9	6	2	1	75	10	1	215	16	5	636.38	49	13
17	24	9	6	2	1	75	10	1	216	6	3	626.79	49	13
17	24	9	6	2	1	75	10	1	217	6	6	10.01	49	1
17	24	9	6	2	1	75	10	1	217	6	6	738.91	49	15
17	24	9	6	2	1	75	10	1	218	6	8	7.53	49	1
17	24	9	6	2	1	75	10	1	219	6	6	29.75	49	1
17	24	9	6	2	1	75	10	1	219	6	6	680.11	49	14
17	24	9	6	2	1	75	10	1	220	6	4	7.66	49	1
17	24	9	6	2	1	75	10	1	220	6	4	624.42	49	13
17	24	9	6	2	1	75	10	1	221	16	9	6.94	49	1
17	24	9	6	2	1	75	10	1	222	6	9	594.58	49	12
17	24	9	6	2	1	75	10	1	223	6	10	544.09	49	11
17	24	9	6	2	1	75	10	1	224	6	1	595.14	49	12
17	24	9	6	2	1	75	10	1	225	16	3	460.2	49	10
17	24	9	6	2	1	75	10	1	226	6	2	560.41	49	12
17	24	9	6	2	1	75	10	1	227	6	7	591.11	49	12
17	24	9	6	2	1	75	10	1	228	6	5	9.41	49	1
17	24	9	6	2	1	75	10	1	228	6	5	590.82	49	12
17	24	9	6	2	1	75	10	1	229	6	8	8.44	49	1
17	24	9	6	2	1	75	10	1	229	6	8	608.25	49	13
17	24	9	6	2	1	75	10	1	230	6	3	8.17	49	1
17	24	9	6	2	1	75	10	1	230	6	3	657.36	49	14
17	24	9	6	2	1	75	10	1	231	6	6	10.02	49	1
17	24	9	6	2	1	75	10	1	232	16	6	31.39	49	1
17	24	9	6	2	1	75	10	1	232	16	6	257.24	49	6
17	24	9	6	2	1	75	10	1	233	16	7	0	-1	16
17	24	9	6	2	1	75	10	1	234	6	5	576.53	49	12
17	24	9	6	2	1	75	10	1	235	6	7	478.17	49	10
17	24	9	6	2	1	75	10	1	236	16	8	564.98	49	12
17	24	9	6	2	1	75	10	1	237	6	1	0	-1	16
17	24	9	6	2	1	75	10	1	238	6	2	135.83	49	3
17	24	9	6	2	1	75	10	1	238	6	2	678.04	49	14
17	24	9	6	2	1	75	10	1	239	6	8	12.62	49	1
17	24	9	6	2	1	75	10	1	239	6	8	634.02	49	13
17	24	9	6	2	1	75	10	1	240	6	4	12.28	49	1
17	24	9	6	2	1	75	10	1	240	6	4	520.61	49	11
17	24	9	6	2	1	75	10	1	241	6	9	578.79	49	12
17	24	9	6	2	1	75	10	1	242	6	10	458.11	49	10
17	24	9	6	2	1	75	10	1	242	6	10	658.14	49	14
17	24	9	6	2	1	75	10	1	243	6	3	557.73	49	12
17	24	9	6	2	1	75	10	1	244	16	5	489.28	49	10
17	24	9	6	2	1	75	10	1	244	16	5	707.31	49	15
17	24	9	6	2	1	75	10	1	245	6	7	537.55	49	11
17	24	9	6	2	1	75	10	1	246	6	10	0	-1	16
17	24	9	6	2	1	75	10	1	247	6	4	38.77	49	1
17	24	9	6	2	1	75	10	1	247	6	4	707.3	49	15
17	24	9	6	2	1	75	10	1	248	6	2	7.15	49	1
17	24	9	6	2	1	75	10	1	248	6	2	759.55	49	16
17	24	9	6	2	1	75	10	1	249	6	5	8.19	49	1
17	24	9	6	2	1	75	10	1	249	6	5	609	49	13
17	24	9	6	2	1	75	10	1	250	16	2	9.53	49	1
17	24	9	6	2	1	75	10	1	251	16	1	0	-1	16
17	24	9	6	2	1	75	10	1	252	6	1	0	-1	16
17	24	9	6	2	1	75	10	1	253	16	4	11.41	49	1
17	24	9	6	2	1	75	10	1	254	6	9	457.64	49	10
17	24	9	6	2	1	75	10	1	254	6	9	658.27	49	14
17	24	9	6	2	1	75	10	1	255	6	6	507.69	49	11
17	24	9	6	2	1	75	10	1	256	6	3	560.44	49	12
17	24	9	6	2	1	75	10	1	257	6	8	623.35	49	13
17	24	9	6	2	1	75	10	1	258	6	6	7.18	49	1
17	24	9	6	2	1	75	10	1	258	6	6	686.68	49	14
17	24	9	6	2	1	75	10	1	259	6	2	8.04	49	1
17	24	9	6	2	1	75	10	1	259	6	2	677.93	49	14
17	24	9	6	2	1	75	10	1	260	6	7	7.77	49	1
17	24	9	6	2	1	75	10	1	260	6	7	760.33	49	16
17	24	9	6	2	1	75	10	1	261	16	9	7.74	49	1
17	24	9	6	2	1	75	10	1	262	6	8	589.55	49	12
17	24	9	6	2	1	75	10	1	263	6	5	422.12	49	9
17	24	9	6	2	1	75	10	1	263	6	5	661.81	49	14
17	24	9	6	2	1	75	10	1	264	6	9	562.13	49	12
17	24	9	6	2	1	75	10	1	264	6	9	762.35	49	16
17	24	9	6	2	1	75	10	1	265	16	10	525.84	49	11
17	24	9	6	2	1	75	10	1	266	6	1	608.37	49	13
17	24	9	6	2	1	75	10	1	267	6	4	8.15	49	1
17	24	9	6	2	1	75	10	1	267	6	4	608.22	49	13
17	24	9	6	2	1	75	10	1	268	6	10	7.63	49	1
17	24	9	6	2	1	75	10	1	268	6	10	657.63	49	14
17	24	9	6	2	1	75	10	1	269	16	3	10	49	1
17	24	9	6	2	1	75	10	1	270	6	3	510.3	49	11
17	24	9	6	2	1	75	10	1	271	16	7	557.26	49	12
17	24	9	6	2	1	75	10	1	272	6	6	570.75	49	12
17	24	9	6	2	1	75	10	1	273	16	1	0	-1	16
17	24	9	6	2	1	75	10	1	274	6	8	0	-1	16
17	24	9	6	2	1	75	10	1	275	6	4	210.62	49	5
17	24	9	6	2	1	75	10	1	276	16	10	115.67	49	3
17	24	9	6	2	1	75	10	1	277	6	10	62.67	49	2
17	24	9	6	2	1	75	10	1	277	6	10	712.49	49	15
17	24	9	6	2	1	75	10	1	278	6	2	12.37	49	1
17	24	9	6	2	1	75	10	1	278	6	2	715.05	49	15
17	24	9	6	2	1	75	10	1	279	6	9	8.86	49	1
17	24	9	6	2	1	75	10	1	279	6	9	738.08	49	15
17	24	9	6	2	1	75	10	1	280	6	1	8.48	49	1
17	24	9	6	2	1	75	10	1	280	6	1	681.29	49	14
17	24	9	6	2	1	75	10	1	281	6	5	7.97	49	1
17	24	9	6	2	1	75	10	1	281	6	5	659.88	49	14
17	24	9	6	2	1	75	10	1	282	6	7	7.83	49	1
17	24	9	6	2	1	75	10	1	282	6	7	626.62	49	13
17	24	9	6	2	1	75	10	1	283	6	3	7.45	49	1
17	24	9	6	2	1	75	10	1	283	6	3	607.26	49	13
17	24	9	6	2	1	75	10	1	284	6	2	7.74	49	1
17	24	9	6	2	1	75	10	1	284	6	2	669.18	49	14
17	24	9	6	2	1	75	10	1	285	6	10	10.06	49	1
17	24	9	6	2	1	75	10	1	285	6	10	657.42	49	14
17	24	9	6	2	1	75	10	1	286	6	9	10.18	49	1
17	24	9	6	2	1	75	10	1	286	6	9	716.74	49	15
17	24	9	6	2	1	75	10	1	287	6	8	7.82	49	1
17	24	9	6	2	1	75	10	1	287	6	8	765.84	49	16
17	24	9	6	2	1	75	10	1	288	16	9	10.38	49	1
17	24	9	6	2	1	75	10	1	289	6	5	559.55	49	12
17	24	9	6	2	1	75	10	1	289	6	5	761.97	49	16
17	24	9	6	2	1	75	10	1	290	6	1	527.02	49	11
17	24	9	6	2	1	75	10	1	290	6	1	760.05	49	16
17	24	9	6	2	1	75	10	1	291	6	7	761.14	49	16
17	24	9	6	2	1	75	10	1	292	16	2	8.92	49	1
17	24	9	6	2	1	75	10	1	293	6	3	760.91	49	16
17	24	9	6	2	1	75	10	1	294	6	6	10.11	49	1
17	24	9	6	2	1	75	10	1	294	6	6	780.23	49	16
17	24	9	6	2	1	75	10	1	295	6	4	7.68	49	1
17	24	9	6	2	1	75	10	1	295	6	4	621.13	49	13
17	24	9	6	2	1	75	10	1	296	16	5	7.44	49	1
17	24	9	6	2	1	75	10	1	297	16	4	445.41	49	9
17	24	9	6	2	1	75	10	1	297	16	4	657.25	49	14
17	24	9	6	2	1	75	10	1	298	6	2	685.02	49	14
17	24	9	6	2	1	75	10	1	299	6	9	10.14	49	1
17	24	9	6	2	1	75	10	1	299	6	9	493.05	49	10
17	24	9	6	2	1	75	10	1	300	6	10	560.16	49	12
17	24	9	6	2	1	75	10	1	301	16	6	673.31	49	14
17	24	9	6	2	1	75	10	1	302	6	1	12.36	49	1
17	24	9	6	2	1	75	10	1	303	6	8	425.08	49	9
17	24	9	6	2	1	75	10	1	304	16	3	358.69	49	8
17	24	9	6	2	1	75	10	1	305	6	6	470.42	49	10
17	24	9	6	2	1	75	10	1	305	6	6	708.1	49	15
17	24	9	6	2	1	75	10	1	306	16	8	381.02	49	8
17	24	9	6	2	1	75	10	1	307	6	7	642.36	49	13
17	24	9	6	2	1	75	10	1	308	6	3	10.22	49	1
17	24	9	6	2	1	75	10	1	308	6	3	560.07	49	12
17	24	9	6	2	1	75	10	1	309	16	7	0	-1	16
17	24	9	6	2	1	75	10	1	310	16	1	0	-1	16
17	24	9	6	2	1	75	10	1	311	6	5	559.2	49	12
17	24	9	6	2	1	75	10	1	312	6	4	389.73	49	8
17	24	9	6	2	1	75	10	1	312	6	4	607.69	49	13
17	24	9	6	2	1	75	10	1	313	6	7	538.74	49	11
17	24	9	6	2	1	75	10	1	313	6	7	759	49	16
17	24	9	6	2	1	75	10	1	314	16	9	0	-1	16
17	24	9	6	2	1	75	10	1	315	6	9	109.84	49	3
17	24	9	6	2	1	75	10	1	316	16	4	534.01	49	11
17	24	9	6	2	1	75	10	1	317	6	2	0	-1	16
17	24	9	6	2	1	75	10	1	318	6	4	8.7	49	1
17	24	9	6	2	1	75	10	1	318	6	4	576.33	49	12
17	24	9	6	2	1	75	10	1	319	16	5	0	-1	16
17	24	9	6	2	1	75	10	1	320	6	5	528.97	49	11
17	24	9	6	2	1	75	10	1	321	6	1	507.1	49	11
17	24	9	6	2	1	75	10	1	321	6	1	707.85	49	15
17	24	9	6	2	1	75	10	1	322	6	10	491.59	49	10
17	24	9	6	2	1	75	10	1	323	16	10	533.92	49	11
17	24	9	6	2	1	75	10	1	324	16	2	586.48	49	12
17	24	9	6	2	1	75	10	1	325	6	6	709.03	49	15
17	24	9	6	2	1	75	10	1	326	6	3	9.98	49	1
17	24	9	6	2	1	75	10	1	326	6	3	668.28	49	14
17	24	9	6	2	1	75	10	1	327	6	8	9.79	49	1
17	24	9	6	2	1	75	10	1	328	6	5	131.65	49	3
17	24	9	6	2	1	75	10	1	328	6	5	739.24	49	15
17	24	9	6	2	1	75	10	1	329	6	10	8.35	49	1
17	24	9	6	2	1	75	10	1	329	6	10	564.72	49	12
17	24	9	6	2	1	75	10	1	330	6	4	584.97	49	12
17	24	9	6	2	1	75	10	1	331	6	9	563.41	49	12
17	24	9	6	2	1	75	10	1	332	6	2	657.41	49	14
17	24	9	6	2	1	75	10	1	333	6	8	7.57	49	1
17	24	9	6	2	1	75	10	1	333	6	8	714.33	49	15
17	24	9	6	2	1	75	10	1	334	6	7	7.22	49	1
17	24	9	6	2	1	75	10	1	334	6	7	740.85	49	15
17	24	9	6	2	1	75	10	1	335	6	3	7.24	49	1
17	24	9	6	2	1	75	10	1	335	6	3	766.09	49	16
17	24	9	6	2	1	75	10	1	336	6	6	10.09	49	1
17	24	9	6	2	1	75	10	1	336	6	6	760.58	49	16
17	24	9	6	2	1	75	10	1	337	6	1	10.21	49	1
17	24	9	6	2	1	75	10	1	337	6	1	708.55	49	15
17	24	9	6	2	1	75	10	1	338	6	7	9.75	49	1
17	24	9	6	2	1	75	10	1	338	6	7	685.36	49	14
17	24	9	6	2	1	75	10	1	339	6	9	9.99	49	1
17	24	9	6	2	1	75	10	1	339	6	9	612.09	49	13
17	24	9	6	2	1	75	10	1	340	6	4	9.69	49	1
17	24	9	6	2	1	75	10	1	340	6	4	709.64	49	15
17	24	9	6	2	1	75	10	1	341	6	10	11.01	49	1
17	24	9	6	2	1	75	10	1	341	6	10	708	49	15
17	24	9	6	2	1	75	10	1	342	6	5	8.45	49	1
17	24	9	6	2	1	75	10	1	342	6	5	572.15	49	12
17	24	9	6	2	1	75	10	1	343	16	6	7.65	49	1
17	24	9	6	2	1	75	10	1	343	16	6	631.99	49	13
17	24	9	6	2	1	75	10	1	344	16	3	7.37	49	1
17	24	9	6	2	1	75	10	1	345	16	8	0	-1	16
17	24	9	6	2	1	75	10	1	346	6	2	691.43	49	14
17	24	9	6	2	1	75	10	1	347	16	2	7.45	49	1
17	24	9	6	2	1	75	10	1	347	16	2	609.41	49	13
17	24	9	6	2	1	75	10	1	348	6	1	7.82	49	1
17	24	9	6	2	1	75	10	1	348	6	1	659.17	49	14
17	24	9	6	2	1	75	10	1	349	6	3	8.34	49	1
17	24	9	6	2	1	75	10	1	349	6	3	566.35	49	12
17	24	9	6	2	1	75	10	1	350	6	6	668.25	49	14
17	24	9	6	2	1	75	10	1	351	6	8	9.99	49	1
17	24	9	6	2	1	75	10	1	351	6	8	659.58	49	14
17	24	9	6	2	1	75	10	1	352	6	2	9.88	49	1
17	24	9	6	2	1	75	10	1	353	6	9	108.78	49	3
17	24	9	6	2	1	75	10	1	353	6	9	658.14	49	14
17	24	9	6	2	1	75	10	1	354	6	10	8.52	49	1
17	24	9	6	2	1	75	10	1	354	6	10	646.3	49	13
17	24	9	6	2	1	75	10	1	355	6	7	7.65	49	1
17	24	9	6	2	1	75	10	1	355	6	7	712.17	49	15
17	24	9	6	2	1	75	10	1	356	16	9	7.56	49	1
17	24	9	6	2	1	75	10	1	357	6	1	617.54	49	13
17	24	9	6	2	1	75	10	1	358	6	6	7.73	49	1
17	24	9	6	2	1	75	10	1	358	6	6	438.56	49	9
17	24	9	6	2	1	75	10	1	358	6	6	657.29	49	14
17	24	9	6	2	1	75	10	1	359	6	5	536.96	49	11
17	24	9	6	2	1	75	10	1	359	6	5	760.26	49	16
17	24	9	6	2	1	75	10	1	360	6	8	717.33	49	15
17	24	9	6	2	1	75	10	1	361	6	3	8.82	49	1
17	24	9	6	2	1	75	10	1	361	6	3	669.14	49	14
17	24	9	6	2	1	75	10	1	362	6	4	12.49	49	1
17	24	9	6	2	1	75	10	1	362	6	4	662.75	49	14
17	24	9	6	2	1	75	10	1	363	6	5	10.58	49	1
17	24	9	6	2	1	75	10	1	363	6	5	691.5	49	14
17	24	9	6	2	1	75	10	1	364	6	2	10.3	49	1
17	24	9	6	2	1	75	10	1	364	6	2	759.82	49	16
17	24	9	6	2	1	75	10	1	365	16	10	43.19	49	1
17	24	9	6	2	1	75	10	1	366	6	10	461.6	49	10
17	24	9	6	2	1	75	10	1	367	6	9	671.93	49	14
17	24	9	6	2	1	75	10	1	368	6	4	8.04	49	1
17	24	9	6	2	1	75	10	1	368	6	4	707.87	49	15
17	24	9	6	2	1	75	10	1	369	6	3	10.11	49	1
17	24	9	6	2	1	75	10	1	369	6	3	639.98	49	13
17	24	9	6	2	1	75	10	1	370	6	8	45.03	49	1
17	24	9	6	2	1	75	10	1	370	6	8	757.64	49	16
17	24	9	6	2	1	75	10	1	371	6	7	7.43	49	1
17	24	9	6	2	1	75	10	1	371	6	7	757.49	49	16
17	24	9	6	2	1	75	10	1	372	6	6	7.72	49	1
17	24	9	6	2	1	75	10	1	373	6	1	10.86	49	1
17	24	9	6	2	1	75	10	1	374	6	2	10.65	49	1
17	24	9	6	2	1	75	10	1	374	6	2	660.97	49	14
17	24	9	6	2	1	75	10	1	375	6	10	41.16	49	1
17	24	9	6	2	1	75	10	1	375	6	10	586.81	49	12
17	24	9	6	2	1	75	10	1	376	6	9	12.47	49	1
17	24	9	6	2	1	75	10	1	376	6	9	625.86	49	13
17	24	9	6	2	1	75	10	1	377	6	7	10.14	49	1
17	24	9	6	2	1	75	10	1	377	6	7	624.76	49	13
17	24	9	6	2	1	75	10	1	378	16	7	9.5	49	1
17	24	9	6	2	1	75	10	1	379	16	3	610.75	49	13
17	24	9	6	2	1	75	10	1	380	16	5	0	-1	16
17	24	9	6	2	1	75	10	1	381	6	5	607.42	49	13
17	24	9	6	2	1	75	10	1	382	16	6	7.66	49	1
17	24	9	6	2	1	75	10	1	382	16	6	460.82	49	10
17	24	9	6	2	1	75	10	1	383	6	8	709.99	49	15
17	24	9	6	2	1	75	10	1	384	6	1	7.74	49	1
17	24	9	6	2	1	75	10	1	384	6	1	760.67	49	16
17	24	9	6	2	1	75	10	1	385	6	6	29.38	49	1
17	24	9	6	2	1	75	10	1	385	6	6	690.41	49	14
17	24	9	6	2	1	75	10	1	386	6	3	7.84	49	1
17	24	9	6	2	1	75	10	1	386	6	3	616.54	49	13
17	24	9	6	2	1	75	10	1	387	16	8	11.01	49	1
17	24	9	6	2	1	75	10	1	387	16	8	564.05	49	12
17	24	9	6	2	1	75	10	1	388	6	4	629	49	13
17	24	9	6	2	1	75	10	1	389	6	7	9.78	49	1
17	24	9	6	2	1	75	10	1	390	6	1	64	49	2
17	24	9	6	2	1	75	10	1	390	6	1	783.85	49	16
17	24	9	6	2	1	75	10	1	391	6	2	8.79	49	1
17	24	9	6	2	1	75	10	1	391	6	2	259.99	49	6
17	24	9	6	2	1	75	10	1	391	6	2	581.75	49	12
17	24	9	6	2	1	75	10	1	392	6	5	7.88	49	1
17	24	9	6	2	1	75	10	1	392	6	5	522.41	49	11
17	24	9	6	2	1	75	10	1	392	6	5	757.75	49	16
17	24	9	6	2	1	75	10	1	393	16	1	588.19	49	12
17	24	9	6	2	1	75	10	1	394	6	10	7.96	49	1
17	24	9	6	2	1	75	10	1	394	6	10	630.79	49	13
17	24	9	6	2	1	75	10	1	395	16	4	11.12	49	1
17	24	9	6	2	1	75	10	1	396	6	4	586.67	49	12
17	24	9	6	2	1	75	10	1	397	6	9	537.93	49	11
17	24	9	6	2	1	75	10	1	398	6	6	689.65	49	14
17	24	9	6	2	1	75	10	1	399	6	3	8.84	49	1
17	24	9	6	2	1	75	10	1	399	6	3	630.52	49	13
17	24	9	6	2	1	75	10	1	400	6	8	59.28	49	2
17	24	9	6	2	1	75	10	1	400	6	8	678.66	49	14
17	24	9	6	2	1	75	10	1	401	16	5	10.08	49	1
17	24	9	6	2	1	75	10	1	402	6	6	635.46	49	13
17	24	9	6	2	1	75	10	1	403	16	9	8.63	49	1
17	24	9	6	2	1	75	10	1	403	16	9	464.52	49	10
17	24	9	6	2	1	75	10	1	404	6	10	509.18	49	11
17	24	9	6	2	1	75	10	1	405	6	9	717.09	49	15
17	24	9	6	2	1	75	10	1	406	16	2	9.96	49	1
17	24	9	6	2	1	75	10	1	407	16	10	709.47	49	15
17	24	9	6	2	1	75	10	1	408	6	5	7.9	49	1
17	24	9	6	2	1	75	10	1	408	6	5	559.58	49	12
17	24	9	6	2	1	75	10	1	409	16	4	658.21	49	14
17	24	9	6	2	1	75	10	1	410	16	6	11.96	49	1
17	24	9	6	2	1	75	10	1	410	16	6	667.06	49	14
17	24	9	6	2	1	75	10	1	411	6	7	8.18	49	1
17	24	9	6	2	1	75	10	1	411	6	7	778.95	49	16
17	24	9	6	2	1	75	10	1	412	16	7	10.44	49	1
17	24	9	6	2	1	75	10	1	413	6	4	681.23	49	14
17	24	9	6	2	1	75	10	1	414	16	8	13.63	49	1
17	24	9	6	2	1	75	10	1	415	6	2	464.93	49	10
17	24	9	6	2	1	75	10	1	416	6	1	617.17	49	13
17	24	9	6	2	1	75	10	1	417	6	8	8.38	49	1
17	24	9	6	2	1	75	10	1	417	6	8	579.12	49	12
17	24	9	6	2	1	75	10	1	418	6	3	623.04	49	13
17	24	9	6	2	1	75	10	1	419	6	2	7.95	49	1
17	24	9	6	2	1	75	10	1	419	6	2	792.58	49	16
17	24	9	6	2	1	75	10	1	420	6	10	7.65	49	1
17	24	9	6	2	1	75	10	1	420	6	10	210.17	49	5
17	24	9	6	2	1	75	10	1	420	6	10	643.03	49	13
17	24	9	6	2	1	75	10	1	421	16	3	7.46	49	1
17	24	9	6	2	1	75	10	1	422	6	9	559.54	49	12
17	24	9	6	2	1	75	10	1	422	6	9	759.61	49	16
17	24	9	6	2	1	75	10	1	423	16	1	0	-1	16
17	24	9	6	2	1	75	10	1	424	6	7	509.79	49	11
17	24	9	6	2	1	75	10	1	425	6	6	785.02	49	16
17	24	9	6	2	1	75	10	1	426	16	6	9.94	49	1
17	24	9	6	2	1	75	10	1	426	16	6	210.15	49	5
17	24	9	6	2	1	75	10	1	427	6	5	386.44	49	8
17	24	9	6	2	1	75	10	1	428	16	7	458.79	49	10
17	24	9	6	2	1	75	10	1	428	16	7	660.15	49	14
17	24	9	6	2	1	75	10	1	429	6	8	517.19	49	11
17	24	9	6	2	1	75	10	1	430	6	1	660.28	49	14
17	24	9	6	2	1	75	10	1	431	16	1	8.16	49	1
17	24	9	6	2	1	75	10	1	432	6	3	483.62	49	10
17	24	9	6	2	1	75	10	1	432	6	3	709.46	49	15
17	24	9	6	2	1	75	10	1	433	6	4	565.16	49	12
17	24	9	6	2	1	75	10	1	434	6	6	516.86	49	11
17	24	9	6	2	1	75	10	1	435	6	1	660.06	49	14
17	24	9	6	2	1	75	10	1	436	6	4	7.88	49	1
17	24	9	6	2	1	75	10	1	436	6	4	633.78	49	13
17	24	9	6	2	1	75	10	1	437	6	10	12.5	49	1
17	24	9	6	2	1	75	10	1	437	6	10	743.04	49	15
17	24	9	6	2	1	75	10	1	438	6	5	13.17	49	1
17	24	9	6	2	1	75	10	1	438	6	5	660.01	49	14
17	24	9	6	2	1	75	10	1	439	16	10	10.04	49	1
17	24	9	6	2	1	75	10	1	439	16	10	772.74	49	16
17	24	9	6	2	1	75	10	1	440	6	7	9.37	49	1
17	24	9	6	2	1	75	10	1	441	6	2	162.45	49	4
17	24	9	6	2	1	75	10	1	442	6	9	158.38	49	4
17	24	9	6	2	1	75	10	1	442	6	9	370.49	49	8
17	24	9	6	2	1	75	10	1	443	6	8	134	49	3
17	24	9	6	2	1	75	10	1	443	6	8	357.3	49	8
17	24	9	6	2	1	75	10	1	443	6	8	792.8	49	16
17	24	9	6	2	1	75	10	1	444	6	3	7.79	49	1
17	24	9	6	2	1	75	10	1	444	6	3	210.25	49	5
17	24	9	6	2	1	75	10	1	444	6	3	678.97	49	14
17	24	9	6	2	1	75	10	1	445	6	5	7.96	49	1
17	24	9	6	2	1	75	10	1	445	6	5	635.32	49	13
17	24	9	6	2	1	75	10	1	446	6	4	7.26	49	1
17	24	9	6	2	1	75	10	1	446	6	4	622.18	49	13
17	24	9	6	2	1	75	10	1	447	6	9	7.28	49	1
17	24	9	6	2	1	75	10	1	447	6	9	663.14	49	14
17	24	9	6	2	1	75	10	1	448	6	2	7.95	49	1
17	24	9	6	2	1	75	10	1	448	6	2	739.32	49	15
17	24	9	6	2	1	75	10	1	449	6	10	8.52	49	1
17	24	9	6	2	1	75	10	1	449	6	10	692.43	49	14
17	24	9	6	2	1	75	10	1	450	6	8	9.9	49	1
17	24	9	6	2	1	75	10	1	450	6	8	743.48	49	15
